Timestamp,ax,ay,az,qr,qi,qj,qk
2026-05-01 15:16:58,0.0000,-0.8047,9.7266,0.999146,-0.041260,0.000000,0.000000
2026-05-01 15:16:58,0.0000,-0.8047,9.7266,0.999146,-0.040955,0.000183,0.000122
2026-05-01 15:16:58,0.0000,-0.8047,9.7266,0.999146,-0.040955,0.000183,0.000183
2026-05-01 15:16:58,0.0000,-0.8047,9.7266,0.999146,-0.040955,0.000183,0.000183
2026-05-01 15:16:58,0.0000,-0.8047,9.7266,0.999146,-0.040955,0.000183,0.000183
2026-05-01 15:16:58,0.0000,-0.8047,9.7266,0.999146,-0.040955,0.000183,0.000122
2026-05-01 15:16:58,0.0000,-0.8047,9.7266,0.999146,-0.040955,0.000183,0.000122
2026-05-01 15:16:58,-0.0391,-0.8047,9.7266,0.999146,-0.040955,0.000183,0.000122
2026-05-01 15:16:58,0.0000,-0.8047,9.7266,0.999146,-0.040955,0.000183,0.000122
2026-05-01 15:16:58,0.0000,-0.8047,9.6875,0.999146,-0.040955,0.000183,0.000122
2026-05-01 15:16:58,0.0000,-0.8047,9.7266,0.999146,-0.041016,0.000183,0.000122
2026-05-01 15:16:58,0.0000,-0.8047,9.7695,0.999146,-0.041016,0.000183,0.000122
2026-05-01 15:16:58,0.0000,-0.8047,9.6875,0.999146,-0.041016,0.000183,0.000122
2026-05-01 15:16:58,0.0000,-0.8047,9.4258,0.999146,-0.041016,0.000183,0.000122
2026-05-01 15:16:58,0.0391,-0.7656,10.0352,0.999146,-0.041016,0.000183,0.000122
2026-05-01 15:16:58,0.0000,-0.8047,9.4609,0.999146,-0.041016,0.000183,0.000122
2026-05-01 15:16:58,0.0391,-0.7656,9.7695,0.999146,-0.041016,0.000183,0.000122
2026-05-01 15:16:58,0.0000,-0.8047,9.8828,0.999146,-0.040955,0.000183,0.000122
2026-05-01 15:16:58,0.0000,-0.8047,9.6523,0.999146,-0.041016,0.000183,0.000122
2026-05-01 15:16:58,0.0000,-0.8047,9.8086,0.999146,-0.041016,0.000183,0.000122
2026-05-01 15:16:58,-0.0391,-0.8047,9.8828,0.999146,-0.040955,0.000183,0.000122
2026-05-01 15:16:58,0.0000,-0.8047,9.6875,0.999146,-0.040955,0.000244,0.000122
2026-05-01 15:16:58,0.0000,-0.8047,9.8438,0.999146,-0.040955,0.000183,0.000122
2026-05-01 15:16:58,0.0000,-0.8438,9.8477,0.999146,-0.040955,0.000183,0.000122
2026-05-01 15:16:58,0.0000,-0.8047,9.6523,0.999146,-0.040955,0.000183,0.000122
2026-05-01 15:16:58,0.0000,-0.8047,9.8086,0.999146,-0.040894,0.000183,0.000122
2026-05-01 15:16:58,0.0000,-0.8047,9.7266,0.999146,-0.040894,0.000183,0.000122
2026-05-01 15:16:58,0.0000,-0.8047,9.8086,0.999146,-0.040894,0.000183,0.000122
2026-05-01 15:16:58,0.0000,-0.8438,9.8047,0.999146,-0.040894,0.000183,0.000122
2026-05-01 15:16:58,0.0000,-0.8047,9.7266,0.999146,-0.040894,0.000183,0.000122
2026-05-01 15:16:58,0.0000,-0.8047,9.7695,0.999146,-0.040955,0.000183,0.000122
2026-05-01 15:16:58,-0.0391,-0.8047,9.7266,0.999146,-0.040955,0.000122,0.000122
2026-05-01 15:16:58,-0.0391,-0.8047,9.7695,0.999146,-0.040894,0.000122,0.000122
2026-05-01 15:16:58,0.0000,-0.7656,9.7266,0.999146,-0.040955,0.000122,0.000122
2026-05-01 15:16:58,0.0391,-0.8047,9.6875,0.999146,-0.040955,0.000122,0.000122
2026-05-01 15:16:58,-0.0391,-0.8438,9.8477,0.999146,-0.040955,0.000122,0.000122
2026-05-01 15:16:58,0.0000,-0.8047,9.8086,0.999146,-0.040955,0.000183,0.000122
2026-05-01 15:16:58,-0.0391,-0.8047,9.6875,0.999146,-0.040955,0.000183,0.000122
2026-05-01 15:16:58,0.0000,-0.8047,9.7695,0.999146,-0.040894,0.000183,0.000122
2026-05-01 15:16:58,0.0000,-0.8047,9.7695,0.999146,-0.040894,0.000183,0.000061
2026-05-01 15:16:59,0.0000,-0.8047,9.7266,0.999146,-0.040894,0.000244,0.000061
2026-05-01 15:16:59,0.0000,-0.7656,9.7695,0.999146,-0.040894,0.000305,0.000061
2026-05-01 15:16:59,-0.0391,-0.8047,9.6875,0.999146,-0.040894,0.000305,0.000061
2026-05-01 15:16:59,0.0000,-0.8047,9.7266,0.999146,-0.040894,0.000305,0.000000
2026-05-01 15:16:59,0.0000,-0.8047,9.7695,0.999146,-0.040894,0.000305,0.000000
2026-05-01 15:16:59,-0.0391,-0.8047,9.7266,0.999146,-0.040894,0.000305,0.000000
2026-05-01 15:16:59,0.0000,-0.8047,9.7266,0.999146,-0.040894,0.000244,0.000061
2026-05-01 15:16:59,0.0000,-0.8047,9.7266,0.999146,-0.040894,0.000244,0.000061
2026-05-01 15:16:59,-0.0391,-0.8047,9.7266,0.999146,-0.040894,0.000244,0.000061
2026-05-01 15:16:59,0.0000,-0.8047,9.7266,0.999146,-0.040894,0.000305,0.000061
2026-05-01 15:16:59,0.0000,-0.8047,9.7266,0.999146,-0.040833,0.000305,0.000000
2026-05-01 15:16:59,-0.0391,-0.8047,9.7266,0.999146,-0.040833,0.000366,0.000000
2026-05-01 15:16:59,-0.0391,-0.8047,9.7266,0.999146,-0.040833,0.000366,-0.000061
2026-05-01 15:16:59,0.0000,-0.8047,9.7266,0.999146,-0.040833,0.000366,-0.000061
2026-05-01 15:16:59,-0.0391,-0.7656,9.7695,0.999146,-0.040833,0.000366,-0.000061
2026-05-01 15:16:59,-0.0391,-0.8438,9.7305,0.999146,-0.040833,0.000366,-0.000061
2026-05-01 15:16:59,-0.0391,-0.8047,9.6875,0.999146,-0.040833,0.000366,-0.000061
2026-05-01 15:16:59,-0.0391,-0.8047,9.8438,0.999146,-0.040833,0.000366,-0.000061
2026-05-01 15:16:59,0.0000,-0.8047,9.7695,0.999146,-0.040833,0.000366,-0.000061
2026-05-01 15:16:59,0.0000,-0.8438,9.6914,0.999146,-0.040833,0.000366,-0.000061
2026-05-01 15:16:59,0.0391,-0.8047,9.7266,0.999146,-0.040955,0.000366,-0.000061
2026-05-01 15:16:59,-0.0391,-0.8047,9.7695,0.999146,-0.040955,0.000366,-0.000061
2026-05-01 15:16:59,0.0000,-0.8047,9.7266,0.999146,-0.040894,0.000366,-0.000061
2026-05-01 15:16:59,0.0000,-0.8047,9.7695,0.999146,-0.040955,0.000366,-0.000122
2026-05-01 15:16:59,0.0000,-0.8047,9.7266,0.999146,-0.040955,0.000366,-0.000122
2026-05-01 15:16:59,-0.0391,-0.8047,9.7266,0.999146,-0.040955,0.000366,-0.000061
2026-05-01 15:16:59,0.0000,-0.8047,9.7695,0.999146,-0.040894,0.000305,-0.000061
2026-05-01 15:16:59,-0.0391,-0.8047,9.7266,0.999146,-0.040894,0.000305,-0.000061
2026-05-01 15:16:59,0.0000,-0.8047,9.7266,0.999146,-0.040894,0.000366,-0.000061
2026-05-01 15:16:59,0.0000,-0.8047,9.7695,0.999146,-0.040894,0.000366,-0.000061
2026-05-01 15:16:59,-0.0391,-0.8047,9.7266,0.999146,-0.040833,0.000366,0.000000
2026-05-01 15:16:59,0.0000,-0.8438,9.7305,0.999146,-0.040833,0.000427,0.000000
2026-05-01 15:16:59,0.0000,-0.8047,9.6875,0.999146,-0.040833,0.000427,0.000000
2026-05-01 15:16:59,0.0000,-0.8047,9.7266,0.999146,-0.040833,0.000427,0.000000
2026-05-01 15:16:59,0.0000,-0.8438,9.6914,0.999146,-0.040833,0.000427,0.000000
2026-05-01 15:16:59,0.0000,-0.8047,9.7266,0.999146,-0.040833,0.000427,0.000000
2026-05-01 15:16:59,0.0000,-0.8047,9.7266,0.999146,-0.040833,0.000427,0.000000
2026-05-01 15:16:59,0.0000,-0.8047,9.7695,0.999146,-0.040833,0.000427,0.000000
2026-05-01 15:16:59,0.0000,-0.8438,9.7305,0.999146,-0.040833,0.000427,0.000000
2026-05-01 15:16:59,-0.0391,-0.8047,9.7266,0.999146,-0.040833,0.000427,0.000061
2026-05-01 15:16:59,0.0000,-0.8047,9.7695,0.999146,-0.040771,0.000427,0.000061
2026-05-01 15:16:59,-0.0391,-0.8047,9.6875,0.999146,-0.040710,0.000488,0.000061
2026-05-01 15:16:59,0.0000,-0.8047,9.7266,0.999146,-0.040710,0.000427,0.000061
2026-05-01 15:16:59,0.0000,-0.8047,9.7695,0.999146,-0.040710,0.000488,0.000061
2026-05-01 15:16:59,-0.0391,-0.8047,9.7695,0.999146,-0.040710,0.000488,0.000061
2026-05-01 15:16:59,0.0000,-0.8047,9.5781,0.999146,-0.040710,0.000488,0.000061
2026-05-01 15:16:59,-0.0391,-0.8438,9.6094,0.999146,-0.040710,0.000488,0.000061
2026-05-01 15:16:59,-0.0391,-0.8047,9.8828,0.999146,-0.040649,0.000488,0.000061
2026-05-01 15:16:59,0.0000,-0.7656,9.8828,0.999146,-0.040588,0.000488,0.000122
2026-05-01 15:16:59,0.0000,-0.8047,9.7695,0.999207,-0.040588,0.000488,0.000122
2026-05-01 15:17:00,0.0000,-0.8047,9.7266,0.999207,-0.040527,0.000488,0.000061
2026-05-01 15:17:00,-0.0391,-0.8047,9.6875,0.999207,-0.040527,0.000549,0.000061
2026-05-01 15:17:00,0.0000,-0.8047,9.7266,0.999207,-0.040527,0.000549,0.000061
2026-05-01 15:17:00,-0.0391,-0.8047,9.7266,0.999207,-0.040527,0.000549,0.000061
2026-05-01 15:17:00,-0.0391,-0.8047,9.7266,0.999207,-0.040527,0.000549,0.000061
2026-05-01 15:17:00,0.0000,-0.8047,9.7695,0.999207,-0.040527,0.000549,0.000061
2026-05-01 15:17:00,0.0000,-0.8047,9.8086,0.999207,-0.040527,0.000549,0.000061
2026-05-01 15:17:00,0.0000,-0.8047,9.7695,0.999207,-0.040527,0.000549,0.000061
2026-05-01 15:17:00,0.0000,-0.8438,9.7656,0.999207,-0.040527,0.000549,0.000061
2026-05-01 15:17:00,0.0391,-0.8047,9.8086,0.999207,-0.040527,0.000549,0.000000
2026-05-01 15:17:00,0.0000,-0.8047,9.5781,0.999207,-0.040527,0.000549,0.000000
2026-05-01 15:17:00,0.0000,-0.8047,9.8086,0.999207,-0.040588,0.000549,0.000061
2026-05-01 15:17:00,0.0000,-0.8047,9.6523,0.999207,-0.040588,0.000549,0.000061
2026-05-01 15:17:00,-0.0391,-0.8047,9.7695,0.999207,-0.040527,0.000549,0.000061
2026-05-01 15:17:00,-0.0391,-0.8047,9.7266,0.999207,-0.040527,0.000549,0.000061
2026-05-01 15:17:00,0.0000,-0.8047,9.7695,0.999207,-0.040527,0.000549,0.000061
2026-05-01 15:17:00,-0.0391,-0.8047,9.7266,0.999207,-0.040588,0.000549,0.000061
2026-05-01 15:17:00,0.0000,-0.8047,9.7266,0.999207,-0.040527,0.000549,0.000061
2026-05-01 15:17:00,0.0000,-0.8047,9.7266,0.999207,-0.040588,0.000549,0.000061
2026-05-01 15:17:00,0.0391,-0.8438,9.6914,0.999146,-0.040588,0.000610,0.000061
2026-05-01 15:17:00,-0.0391,-0.8047,9.7266,0.999207,-0.040588,0.000549,0.000061
2026-05-01 15:17:00,0.0000,-0.8047,9.7695,0.999146,-0.040588,0.000549,0.000061
2026-05-01 15:17:00,0.0000,-0.8047,9.7266,0.999207,-0.040588,0.000549,0.000061
2026-05-01 15:17:00,-0.0391,-0.8047,9.7695,0.999207,-0.040588,0.000549,0.000061
2026-05-01 15:17:00,-0.0391,-0.8047,9.7266,0.999207,-0.040588,0.000549,0.000000
2026-05-01 15:17:00,-0.0391,-0.7656,9.7695,0.999207,-0.040588,0.000610,0.000000
2026-05-01 15:17:00,0.0000,-0.8047,9.7695,0.999207,-0.040588,0.000610,0.000061
2026-05-01 15:17:00,0.0000,-0.8047,9.7266,0.999207,-0.040588,0.000610,0.000061
2026-05-01 15:17:00,0.0000,-0.8047,9.7695,0.999207,-0.040588,0.000610,0.000122
2026-05-01 15:17:00,-0.0391,-0.8047,9.7266,0.999207,-0.040588,0.000610,0.000122
2026-05-01 15:17:00,-0.0391,-0.8047,9.9258,0.999207,-0.040527,0.000610,0.000122
2026-05-01 15:17:00,-0.0391,-0.8047,9.6523,0.999207,-0.040527,0.000610,0.000122
2026-05-01 15:17:00,0.0000,-0.8438,9.6094,0.999207,-0.040466,0.000549,0.000122
2026-05-01 15:17:00,0.0000,-0.8438,9.7656,0.999207,-0.040466,0.000549,0.000122
2026-05-01 15:17:00,-0.0391,-0.8047,9.6875,0.999207,-0.040466,0.000610,0.000122
2026-05-01 15:17:00,0.0000,-0.8047,9.7695,0.999207,-0.040466,0.000610,0.000122
2026-05-01 15:17:00,-0.0391,-0.8047,9.7695,0.999207,-0.040466,0.000549,0.000122
2026-05-01 15:17:00,0.0000,-0.8047,9.5781,0.999207,-0.040466,0.000549,0.000122
2026-05-01 15:17:00,-0.0391,-0.8047,9.6875,0.999207,-0.040405,0.000549,0.000122
2026-05-01 15:17:00,-0.0391,-0.8047,9.8438,0.999207,-0.040405,0.000610,0.000122
2026-05-01 15:17:00,-0.0391,-0.8047,9.6875,0.999207,-0.040466,0.000610,0.000122
2026-05-01 15:17:00,-0.0391,-0.8047,9.7266,0.999207,-0.040466,0.000610,0.000122
2026-05-01 15:17:00,-0.0391,-0.8047,9.7266,0.999207,-0.040466,0.000610,0.000122
2026-05-01 15:17:00,0.0000,-0.8047,9.7695,0.999207,-0.040466,0.000610,0.000061
2026-05-01 15:17:00,0.0391,-0.8047,9.7695,0.999207,-0.040466,0.000610,0.000061
2026-05-01 15:17:00,0.0000,-0.8047,9.6875,0.999207,-0.040527,0.000610,0.000061
2026-05-01 15:17:00,0.0000,-0.8047,9.7266,0.999207,-0.040466,0.000610,0.000061
2026-05-01 15:17:00,0.0000,-0.8438,9.7305,0.999207,-0.040466,0.000610,0.000061
2026-05-01 15:17:00,0.0000,-0.8047,9.7266,0.999207,-0.040466,0.000671,0.000061
2026-05-01 15:17:00,-0.0391,-0.8047,9.7266,0.999207,-0.040466,0.000671,0.000061
2026-05-01 15:17:01,-0.0391,-0.8047,9.7266,0.999207,-0.040466,0.000610,0.000122
2026-05-01 15:17:01,-0.0391,-0.8047,9.7695,0.999207,-0.040466,0.000610,0.000183
2026-05-01 15:17:01,-0.0391,-0.8047,9.7695,0.999207,-0.040466,0.000671,0.000183
2026-05-01 15:17:01,-0.0391,-0.8047,9.6875,0.999207,-0.040466,0.000671,0.000183
2026-05-01 15:17:01,-0.0391,-0.8047,9.8086,0.999207,-0.040466,0.000671,0.000183
2026-05-01 15:17:01,-0.0391,-0.8438,9.7305,0.999207,-0.040405,0.000671,0.000183
2026-05-01 15:17:01,0.0000,-0.8047,9.6875,0.999207,-0.040405,0.000732,0.000244
2026-05-01 15:17:01,-0.0391,-0.8047,9.7695,0.999207,-0.040405,0.000732,0.000244
2026-05-01 15:17:01,0.0000,-0.8047,9.7695,0.999207,-0.040405,0.000671,0.000244
2026-05-01 15:17:01,-0.0391,-0.7656,9.7695,0.999207,-0.040405,0.000671,0.000305
2026-05-01 15:17:01,0.0000,-0.8047,9.7266,0.999207,-0.040344,0.000610,0.000244
2026-05-01 15:17:01,0.0000,-0.8047,9.7266,0.999207,-0.040344,0.000610,0.000244
2026-05-01 15:17:01,0.0000,-0.8047,9.7695,0.999207,-0.040344,0.000549,0.000305
2026-05-01 15:17:01,-0.0391,-0.8047,9.7266,0.999207,-0.040344,0.000549,0.000305
2026-05-01 15:17:01,0.0000,-0.8047,9.7266,0.999207,-0.040344,0.000549,0.000305
2026-05-01 15:17:01,-0.0391,-0.8047,9.6875,0.999207,-0.040344,0.000549,0.000305
2026-05-01 15:17:01,0.0000,-0.8047,9.7695,0.999207,-0.040344,0.000488,0.000305
2026-05-01 15:17:01,0.0000,-0.8438,9.7305,0.999207,-0.040344,0.000549,0.000305
2026-05-01 15:17:01,-0.0391,-0.8047,9.7266,0.999207,-0.040344,0.000549,0.000305
2026-05-01 15:17:01,-0.0391,-0.8047,9.7266,0.999207,-0.040344,0.000549,0.000305
2026-05-01 15:17:01,0.0000,-0.8047,9.7266,0.999207,-0.040222,0.000549,0.000305
2026-05-01 15:17:01,0.0000,-0.8047,9.7695,0.999207,-0.040222,0.000549,0.000305
2026-05-01 15:17:01,-0.0391,-0.8047,9.7695,0.999207,-0.040283,0.000549,0.000366
2026-05-01 15:17:01,-0.0391,-0.8047,9.7266,0.999207,-0.040222,0.000549,0.000305
2026-05-01 15:17:01,-0.0391,-0.8047,9.7266,0.999207,-0.040222,0.000549,0.000305
2026-05-01 15:17:01,0.0000,-0.8047,9.7695,0.999207,-0.040222,0.000549,0.000305
2026-05-01 15:17:01,0.0000,-0.8047,9.7695,0.999207,-0.040222,0.000549,0.000305
2026-05-01 15:17:01,0.0000,-0.8047,9.7266,0.999207,-0.040283,0.000549,0.000305
2026-05-01 15:17:01,-0.0391,-0.8047,9.8086,0.999207,-0.040222,0.000549,0.000305
2026-05-01 15:17:01,0.0000,-0.8047,9.7695,0.999207,-0.040161,0.000549,0.000305
2026-05-01 15:17:01,0.0000,-0.8047,9.7695,0.999207,-0.040161,0.000488,0.000366
2026-05-01 15:17:01,0.0000,-0.8047,9.7266,0.999207,-0.040161,0.000488,0.000366
2026-05-01 15:17:01,-0.0391,-0.8047,9.7266,0.999207,-0.040161,0.000488,0.000366
2026-05-01 15:17:01,-0.0391,-0.8047,9.7695,0.999207,-0.040222,0.000488,0.000366
2026-05-01 15:17:01,0.0000,-0.7656,9.7695,0.999207,-0.040222,0.000549,0.000366
2026-05-01 15:17:01,0.0000,-0.8047,9.6875,0.999207,-0.040222,0.000549,0.000366
2026-05-01 15:17:01,0.0000,-0.8047,9.7695,0.999207,-0.040222,0.000549,0.000427
2026-05-01 15:17:01,0.0000,-0.8047,9.7266,0.999207,-0.040222,0.000549,0.000366
2026-05-01 15:17:01,0.0000,-0.8047,9.8086,0.999207,-0.040222,0.000549,0.000427
2026-05-01 15:17:01,-0.0391,-0.8047,9.8086,0.999207,-0.040161,0.000549,0.000427
2026-05-01 15:17:01,0.0000,-0.8047,9.7695,0.999207,-0.040344,0.000549,0.000427
2026-05-01 15:17:01,0.0000,-0.8047,9.7266,0.999207,-0.040344,0.000549,0.000427
2026-05-01 15:17:01,-0.0391,-0.8047,9.7266,0.999207,-0.040344,0.000549,0.000427
2026-05-01 15:17:01,-0.0391,-0.8047,9.7266,0.999207,-0.040405,0.000549,0.000427
2026-05-01 15:17:01,-0.0391,-0.8047,9.7266,0.999207,-0.040405,0.000549,0.000427
2026-05-01 15:17:01,-0.0391,-0.8438,9.7305,0.999207,-0.040405,0.000549,0.000427
2026-05-01 15:17:01,0.0000,-0.8047,9.7266,0.999207,-0.040405,0.000549,0.000427
2026-05-01 15:17:01,-0.0391,-0.8047,9.7266,0.999207,-0.040466,0.000549,0.000427
2026-05-01 15:17:01,0.0000,-0.8047,9.7695,0.999207,-0.040466,0.000549,0.000427
2026-05-01 15:17:01,0.0000,-0.8047,9.7266,0.999207,-0.040466,0.000549,0.000427
2026-05-01 15:17:02,-0.0391,-0.8047,9.7695,0.999207,-0.040466,0.000488,0.000427
2026-05-01 15:17:02,-0.0391,-0.8047,9.7695,0.999207,-0.040466,0.000549,0.000427
2026-05-01 15:17:02,-0.0391,-0.8438,9.7656,0.999207,-0.040466,0.000549,0.000427
2026-05-01 15:17:02,-0.0391,-0.8047,9.7266,0.999207,-0.040466,0.000610,0.000427
2026-05-01 15:17:02,-0.0391,-0.8047,9.7695,0.999207,-0.040466,0.000610,0.000427
2026-05-01 15:17:02,-0.0391,-0.8047,9.7266,0.999207,-0.040466,0.000610,0.000427
2026-05-01 15:17:02,-0.0391,-0.8047,9.7266,0.999207,-0.040466,0.000610,0.000427
2026-05-01 15:17:02,0.0000,-0.8047,9.7695,0.999207,-0.040405,0.000610,0.000427
2026-05-01 15:17:02,-0.0391,-0.7656,9.7266,0.999207,-0.040466,0.000610,0.000427
2026-05-01 15:17:02,-0.0391,-0.8047,9.7266,0.999207,-0.040466,0.000610,0.000427
2026-05-01 15:17:02,0.0000,-0.8047,9.6523,0.999207,-0.040405,0.000610,0.000427
2026-05-01 15:17:02,0.0000,-0.8047,9.7266,0.999207,-0.040405,0.000610,0.000427
2026-05-01 15:17:02,0.0000,-0.8047,9.7695,0.999207,-0.040405,0.000610,0.000427
2026-05-01 15:17:02,0.0000,-0.7656,9.8086,0.999207,-0.040405,0.000610,0.000427
2026-05-01 15:17:02,0.0000,-0.8047,9.8438,0.999207,-0.040405,0.000610,0.000366
2026-05-01 15:17:02,0.0000,-0.8047,9.7266,0.999207,-0.040405,0.000610,0.000366
2026-05-01 15:17:02,0.0000,-0.8047,9.7266,0.999207,-0.040405,0.000610,0.000366
2026-05-01 15:17:02,0.0391,-0.8047,9.8086,0.999207,-0.040405,0.000610,0.000366
2026-05-01 15:17:02,0.0000,-0.7656,9.7266,0.999207,-0.040344,0.000610,0.000366
2026-05-01 15:17:02,0.0000,-0.8047,9.7266,0.999207,-0.040344,0.000610,0.000366
2026-05-01 15:17:02,0.0000,-0.8047,9.7266,0.999207,-0.040405,0.000549,0.000183
2026-05-01 15:17:02,0.0000,-0.8438,9.7656,0.999207,-0.040405,0.000549,0.000183
2026-05-01 15:17:02,0.0000,-0.8047,9.7266,0.999207,-0.040344,0.000549,0.000183
2026-05-01 15:17:02,-0.0391,-0.8047,9.7266,0.999207,-0.040344,0.000549,0.000183
2026-05-01 15:17:02,-0.0391,-0.8047,9.7695,0.999207,-0.040405,0.000549,0.000183
2026-05-01 15:17:02,0.0000,-0.8047,9.7266,0.999207,-0.040405,0.000549,0.000183
2026-05-01 15:17:02,0.0000,-0.8047,9.7266,0.999207,-0.040405,0.000549,0.000183
2026-05-01 15:17:02,0.0000,-0.8047,9.7266,0.999207,-0.040405,0.000549,0.000183
2026-05-01 15:17:02,-0.0391,-0.8047,9.7695,0.999207,-0.040405,0.000549,0.000183
2026-05-01 15:17:02,0.0000,-0.8047,9.7266,0.999207,-0.040405,0.000549,0.000244
2026-05-01 15:17:02,0.0000,-0.8047,9.7266,0.999207,-0.040466,0.000427,0.000183
2026-05-01 15:17:02,-0.0391,-0.8047,9.7695,0.999207,-0.040466,0.000427,0.000183
2026-05-01 15:17:02,-0.0391,-0.8047,9.7695,0.999207,-0.040405,0.000488,0.000183
2026-05-01 15:17:02,-0.0391,-0.8047,9.7266,0.999207,-0.040405,0.000488,0.000183
2026-05-01 15:17:02,-0.0391,-0.8047,9.7695,0.999207,-0.040405,0.000488,0.000183
2026-05-01 15:17:02,0.0000,-0.8047,9.8086,0.999207,-0.040405,0.000488,0.000183
2026-05-01 15:17:02,0.0000,-0.8047,9.7266,0.999207,-0.040405,0.000488,0.000183
2026-05-01 15:17:02,0.0000,-0.8047,9.7266,0.999207,-0.040405,0.000488,0.000183
2026-05-01 15:17:02,0.0000,-0.8438,9.7305,0.999207,-0.040344,0.000488,0.000183
2026-05-01 15:17:02,-0.0391,-0.7656,9.7695,0.999207,-0.040344,0.000488,0.000183
2026-05-01 15:17:02,-0.0391,-0.8047,9.7695,0.999207,-0.040222,0.000549,0.000244
2026-05-01 15:17:02,0.0000,-0.8047,9.7695,0.999207,-0.040222,0.000549,0.000244
2026-05-01 15:17:02,0.0000,-0.8047,9.7266,0.999207,-0.040222,0.000549,0.000244
2026-05-01 15:17:02,0.0000,-0.8438,9.7305,0.999207,-0.040222,0.000610,0.000244
2026-05-01 15:17:02,-0.0391,-0.8047,9.7266,0.999207,-0.040222,0.000610,0.000244
2026-05-01 15:17:02,-0.0391,-0.8047,9.7266,0.999207,-0.040222,0.000549,0.000244
2026-05-01 15:17:02,-0.0391,-0.8047,9.7266,0.999207,-0.040161,0.000549,0.000244
2026-05-01 15:17:02,0.0000,-0.8047,9.7266,0.999207,-0.040161,0.000549,0.000244
2026-05-01 15:17:02,0.0000,-0.8047,9.7695,0.999207,-0.040161,0.000549,0.000244
2026-05-01 15:17:02,0.0000,-0.8047,9.7266,0.999207,-0.040222,0.000549,0.000244
2026-05-01 15:17:03,0.0000,-0.8047,9.7695,0.999207,-0.040222,0.000549,0.000305
2026-05-01 15:17:03,0.0000,-0.8047,9.7266,0.999207,-0.040222,0.000549,0.000305
2026-05-01 15:17:03,0.0000,-0.8438,9.7656,0.999207,-0.040222,0.000549,0.000305
2026-05-01 15:17:03,-0.0391,-0.8047,9.7266,0.999207,-0.040222,0.000549,0.000305
2026-05-01 15:17:03,0.0000,-0.8047,9.7266,0.999207,-0.040222,0.000549,0.000366
2026-05-01 15:17:03,-0.0391,-0.8047,9.7695,0.999207,-0.040283,0.000549,0.000366
2026-05-01 15:17:03,-0.0391,-0.8047,9.7266,0.999207,-0.040283,0.000549,0.000366
2026-05-01 15:17:03,0.0000,-0.8047,9.7266,0.999207,-0.040344,0.000610,0.000305
2026-05-01 15:17:03,-0.0391,-0.8047,9.7695,0.999207,-0.040344,0.000610,0.000305
2026-05-01 15:17:03,-0.0391,-0.8047,9.7695,0.999207,-0.040405,0.000610,0.000305
2026-05-01 15:17:03,0.0000,-0.8047,9.7266,0.999207,-0.040344,0.000549,0.000305
2026-05-01 15:17:03,0.0000,-0.8047,9.7266,0.999207,-0.040344,0.000549,0.000366
2026-05-01 15:17:03,-0.0391,-0.8047,9.7266,0.999207,-0.040344,0.000549,0.000366
2026-05-01 15:17:03,-0.0391,-0.8047,9.7695,0.999207,-0.040283,0.000549,0.000366
2026-05-01 15:17:03,-0.0391,-0.8047,9.7695,0.999207,-0.040283,0.000549,0.000366
2026-05-01 15:17:03,-0.0391,-0.8047,9.7266,0.999207,-0.040283,0.000549,0.000427
2026-05-01 15:17:03,-0.0781,-0.8047,9.7266,0.999207,-0.040283,0.000549,0.000427
2026-05-01 15:17:03,-0.0391,-0.8047,9.7695,0.999207,-0.040344,0.000549,0.000427
2026-05-01 15:17:03,-0.0391,-0.8047,9.7266,0.999207,-0.040344,0.000610,0.000427
2026-05-01 15:17:03,0.0000,-0.7656,9.7266,0.999207,-0.040405,0.000610,0.000427
2026-05-01 15:17:03,-0.0391,-0.8047,9.7266,0.999207,-0.040405,0.000610,0.000488
2026-05-01 15:17:03,0.0000,-0.8047,9.7266,0.999207,-0.040405,0.000610,0.000488
2026-05-01 15:17:03,-0.0391,-0.8047,9.7695,0.999207,-0.040405,0.000671,0.000427
2026-05-01 15:17:03,-0.0391,-0.8047,9.7266,0.999207,-0.040405,0.000610,0.000488
2026-05-01 15:17:03,-0.0391,-0.7656,9.7266,0.999207,-0.040344,0.000610,0.000488
2026-05-01 15:17:03,0.0000,-0.8047,9.7695,0.999207,-0.040344,0.000610,0.000488
2026-05-01 15:17:03,0.0000,-0.7656,9.7695,0.999207,-0.040344,0.000610,0.000488
2026-05-01 15:17:03,0.0000,-0.8047,9.7266,0.999207,-0.040344,0.000671,0.000427
2026-05-01 15:17:03,-0.0391,-0.8047,9.7695,0.999207,-0.040283,0.000671,0.000427
2026-05-01 15:17:03,0.0000,-0.8438,9.7305,0.999207,-0.040283,0.000671,0.000488
2026-05-01 15:17:03,0.0000,-0.8047,9.7266,0.999207,-0.040344,0.000671,0.000488
2026-05-01 15:17:03,0.0000,-0.8047,9.7695,0.999207,-0.040344,0.000671,0.000488
2026-05-01 15:17:03,0.0000,-0.7656,9.7695,0.999207,-0.040344,0.000671,0.000488
2026-05-01 15:17:03,0.0000,-0.8047,9.7695,0.999207,-0.040344,0.000610,0.000488
2026-05-01 15:17:03,-0.0391,-0.8047,9.7266,0.999207,-0.040283,0.000610,0.000488
2026-05-01 15:17:03,-0.0391,-0.8047,9.7695,0.999207,-0.040283,0.000610,0.000488
2026-05-01 15:17:03,-0.0391,-0.8047,9.7266,0.999207,-0.040283,0.000610,0.000488
2026-05-01 15:17:03,-0.0391,-0.8047,9.7266,0.999207,-0.040344,0.000610,0.000488
2026-05-01 15:17:03,-0.0391,-0.8438,9.7656,0.999207,-0.040344,0.000610,0.000488
2026-05-01 15:17:03,-0.0391,-0.8047,9.7695,0.999207,-0.040344,0.000610,0.000488
2026-05-01 15:17:03,-0.0391,-0.8047,9.7695,0.999207,-0.040344,0.000610,0.000427
2026-05-01 15:17:03,0.0000,-0.8047,9.7695,0.999207,-0.040344,0.000610,0.000427
2026-05-01 15:17:03,0.0000,-0.8438,9.7656,0.999207,-0.040344,0.000549,0.000488
2026-05-01 15:17:03,0.0000,-0.8047,9.7266,0.999207,-0.040344,0.000549,0.000488
2026-05-01 15:17:03,-0.0391,-0.8047,9.7695,0.999207,-0.040283,0.000549,0.000488
2026-05-01 15:17:03,0.0000,-0.8438,9.7656,0.999207,-0.040283,0.000549,0.000488
2026-05-01 15:17:03,0.0000,-0.8047,9.7266,0.999207,-0.040283,0.000549,0.000488
2026-05-01 15:17:03,-0.0391,-0.8047,9.7695,0.999207,-0.040283,0.000549,0.000488
2026-05-01 15:17:03,-0.0391,-0.8047,9.7695,0.999207,-0.040283,0.000549,0.000488
2026-05-01 15:17:04,0.0000,-0.8047,9.7695,0.999207,-0.040283,0.000610,0.000488
2026-05-01 15:17:04,0.0000,-0.8047,9.7695,0.999207,-0.040283,0.000549,0.000549
2026-05-01 15:17:04,-0.0391,-0.8047,9.7266,0.999207,-0.040283,0.000549,0.000549
2026-05-01 15:17:04,0.0000,-0.8047,9.7266,0.999207,-0.040283,0.000488,0.000549
2026-05-01 15:17:04,0.0000,-0.8047,9.7266,0.999207,-0.040283,0.000549,0.000549
2026-05-01 15:17:04,0.0000,-0.8438,9.7656,0.999207,-0.040283,0.000549,0.000549
2026-05-01 15:17:04,-0.0391,-0.8047,9.7266,0.999207,-0.040283,0.000549,0.000549
2026-05-01 15:17:04,0.0000,-0.8047,9.7266,0.999207,-0.040283,0.000549,0.000549
2026-05-01 15:17:04,0.0000,-0.8047,9.7695,0.999207,-0.040344,0.000549,0.000549
2026-05-01 15:17:04,-0.0391,-0.8438,9.7656,0.999207,-0.040344,0.000549,0.000549
2026-05-01 15:17:04,-0.0391,-0.8047,9.7695,0.999207,-0.040344,0.000549,0.000549
2026-05-01 15:17:04,0.0000,-0.8047,9.7266,0.999207,-0.040344,0.000549,0.000549
2026-05-01 15:17:04,0.0000,-0.8047,9.7695,0.999207,-0.040344,0.000549,0.000549
2026-05-01 15:17:04,0.0000,-0.8047,9.7266,0.999207,-0.040405,0.000549,0.000549
2026-05-01 15:17:04,-0.0391,-0.8047,9.7695,0.999207,-0.040405,0.000549,0.000549
2026-05-01 15:17:04,-0.0391,-0.8047,9.7266,0.999207,-0.040405,0.000549,0.000549
2026-05-01 15:17:04,-0.0391,-0.8047,9.7266,0.999207,-0.040405,0.000610,0.000549
2026-05-01 15:17:04,0.0000,-0.7656,9.7266,0.999207,-0.040405,0.000610,0.000549
2026-05-01 15:17:04,0.0000,-0.8047,9.7695,0.999207,-0.040405,0.000610,0.000549
2026-05-01 15:17:04,0.0000,-0.8047,9.7695,0.999207,-0.040405,0.000610,0.000549
2026-05-01 15:17:04,-0.0391,-0.7656,9.7266,0.999207,-0.040405,0.000610,0.000549
2026-05-01 15:17:04,-0.0391,-0.8047,9.7266,0.999207,-0.040466,0.000610,0.000549
2026-05-01 15:17:04,-0.0391,-0.8047,9.7266,0.999207,-0.040466,0.000610,0.000549
2026-05-01 15:17:04,-0.0391,-0.8047,9.7266,0.999207,-0.040527,0.000610,0.000549
2026-05-01 15:17:04,0.0000,-0.8047,9.7266,0.999207,-0.040527,0.000671,0.000549
2026-05-01 15:17:04,-0.0391,-0.8047,9.7695,0.999207,-0.040527,0.000671,0.000549
2026-05-01 15:17:04,0.0000,-0.8047,9.7266,0.999207,-0.040527,0.000671,0.000549
2026-05-01 15:17:04,0.0391,-0.8438,9.7656,0.999207,-0.040527,0.000671,0.000549
2026-05-01 15:17:04,0.0000,-0.8047,9.7266,0.999207,-0.040527,0.000671,0.000549
2026-05-01 15:17:04,0.0000,-0.8047,9.7695,0.999207,-0.040588,0.000671,0.000549
2026-05-01 15:17:04,0.0000,-0.8047,9.7695,0.999207,-0.040588,0.000671,0.000549
2026-05-01 15:17:04,-0.0391,-0.8047,9.7266,0.999146,-0.040588,0.000671,0.000549
2026-05-01 15:17:04,0.0000,-0.8047,9.7266,0.999146,-0.040588,0.000671,0.000549
2026-05-01 15:17:04,-0.0391,-0.8047,9.7695,0.999146,-0.040649,0.000671,0.000549
2026-05-01 15:17:04,-0.0391,-0.8047,9.7695,0.999146,-0.040649,0.000671,0.000549
2026-05-01 15:17:04,-0.0391,-0.8047,9.7695,0.999146,-0.040649,0.000671,0.000549
2026-05-01 15:17:04,-0.0391,-0.8047,9.7266,0.999146,-0.040649,0.000671,0.000549
2026-05-01 15:17:04,0.0000,-0.8047,9.7266,0.999146,-0.040649,0.000671,0.000549
2026-05-01 15:17:04,-0.0391,-0.8047,9.7695,0.999146,-0.040649,0.000671,0.000549
2026-05-01 15:17:04,0.0000,-0.8047,9.7695,0.999146,-0.040649,0.000671,0.000549
2026-05-01 15:17:04,-0.0391,-0.8047,9.7266,0.999146,-0.040649,0.000671,0.000549
2026-05-01 15:17:04,-0.0391,-0.8047,9.7266,0.999146,-0.040710,0.000732,0.000549
2026-05-01 15:17:04,-0.0391,-0.8047,9.7695,0.999146,-0.040710,0.000732,0.000549
2026-05-01 15:17:04,-0.0391,-0.8047,9.6875,0.999146,-0.040710,0.000732,0.000549
2026-05-01 15:17:04,-0.0391,-0.8047,9.7266,0.999146,-0.040710,0.000732,0.000549
2026-05-01 15:17:04,-0.0391,-0.8047,9.7266,0.999146,-0.040710,0.000732,0.000549
2026-05-01 15:17:04,0.0000,-0.8047,9.7266,0.999146,-0.040710,0.000732,0.000549
2026-05-01 15:17:04,-0.0391,-0.8047,9.7266,0.999146,-0.040710,0.000732,0.000549
2026-05-01 15:17:05,-0.0391,-0.8047,9.7266,0.999146,-0.040771,0.000732,0.000549
2026-05-01 15:17:05,0.0000,-0.8047,9.7695,0.999146,-0.040771,0.000732,0.000549
2026-05-01 15:17:05,-0.0391,-0.8047,9.7695,0.999146,-0.040771,0.000732,0.000549
2026-05-01 15:17:05,-0.0391,-0.8047,9.7695,0.999146,-0.040771,0.000732,0.000549
2026-05-01 15:17:05,0.0000,-0.8047,9.7695,0.999146,-0.040771,0.000732,0.000549
2026-05-01 15:17:05,0.0000,-0.8047,9.7266,0.999146,-0.040771,0.000732,0.000549
2026-05-01 15:17:05,-0.0391,-0.8047,9.7266,0.999146,-0.040771,0.000732,0.000549
2026-05-01 15:17:05,0.0000,-0.8047,9.7266,0.999146,-0.040771,0.000793,0.000549
2026-05-01 15:17:05,-0.0391,-0.8047,9.7266,0.999146,-0.040771,0.000793,0.000549
2026-05-01 15:17:05,-0.0391,-0.8047,9.7695,0.999146,-0.040771,0.000793,0.000549
2026-05-01 15:17:05,0.0000,-0.8047,9.7266,0.999146,-0.040771,0.000793,0.000549
2026-05-01 15:17:05,0.0000,-0.8047,9.7695,0.999146,-0.040833,0.000793,0.000549
2026-05-01 15:17:05,-0.0391,-0.8047,9.7266,0.999146,-0.040833,0.000793,0.000549
2026-05-01 15:17:05,0.0000,-0.8047,9.7266,0.999146,-0.040833,0.000793,0.000549
2026-05-01 15:17:05,0.0000,-0.8047,9.7266,0.999146,-0.040833,0.000793,0.000549
2026-05-01 15:17:05,-0.0391,-0.8047,9.7695,0.999146,-0.040833,0.000793,0.000549
2026-05-01 15:17:05,0.0000,-0.8047,9.7695,0.999146,-0.040833,0.000793,0.000549
2026-05-01 15:17:05,-0.0391,-0.8047,9.7266,0.999146,-0.040833,0.000854,0.000549
2026-05-01 15:17:05,0.0000,-0.8047,9.7695,0.999146,-0.040833,0.000854,0.000549
2026-05-01 15:17:05,-0.0391,-0.8047,9.7266,0.999146,-0.040833,0.000854,0.000549
2026-05-01 15:17:05,0.0000,-0.8047,9.7695,0.999146,-0.040833,0.000854,0.000549
2026-05-01 15:17:05,-0.0391,-0.8047,9.7266,0.999146,-0.040833,0.000854,0.000549
2026-05-01 15:17:05,-0.0391,-0.8047,9.7695,0.999146,-0.040894,0.000854,0.000549
2026-05-01 15:17:05,0.0000,-0.8047,9.7266,0.999146,-0.040894,0.000854,0.000549
2026-05-01 15:17:05,-0.0391,-0.8047,9.7266,0.999146,-0.040894,0.000854,0.000549
2026-05-01 15:17:05,0.0000,-0.8047,9.7266,0.999146,-0.040894,0.000854,0.000549
2026-05-01 15:17:05,0.0000,-0.8438,9.7305,0.999146,-0.040894,0.000854,0.000549
2026-05-01 15:17:05,0.0000,-0.8047,9.7266,0.999146,-0.040894,0.000854,0.000549
2026-05-01 15:17:05,0.0000,-0.8047,9.7266,0.999146,-0.040894,0.000854,0.000549
2026-05-01 15:17:05,0.0000,-0.8047,9.7695,0.999146,-0.040894,0.000854,0.000549
2026-05-01 15:17:05,0.0000,-0.8047,9.7695,0.999146,-0.040894,0.000916,0.000549
2026-05-01 15:17:05,0.0000,-0.8047,9.7266,0.999146,-0.040894,0.000916,0.000549
2026-05-01 15:17:05,-0.0391,-0.8047,9.7266,0.999146,-0.040894,0.000916,0.000549
2026-05-01 15:17:05,0.0000,-0.8047,9.7266,0.999146,-0.040955,0.000916,0.000549
2026-05-01 15:17:05,0.0000,-0.8047,9.7695,0.999146,-0.040955,0.000916,0.000549
2026-05-01 15:17:05,0.0000,-0.8047,9.7695,0.999146,-0.040955,0.000916,0.000549
2026-05-01 15:17:05,-0.0391,-0.8047,9.7695,0.999146,-0.040955,0.000916,0.000549
2026-05-01 15:17:05,-0.0391,-0.8047,9.7695,0.999146,-0.040955,0.000916,0.000549
2026-05-01 15:17:05,0.0000,-0.8047,9.7266,0.999146,-0.040955,0.000916,0.000549
2026-05-01 15:17:05,0.0000,-0.8047,9.7266,0.999146,-0.040955,0.000916,0.000549
2026-05-01 15:17:05,-0.0391,-0.7656,9.7266,0.999146,-0.040955,0.000916,0.000549
2026-05-01 15:17:05,0.0000,-0.8047,9.7695,0.999146,-0.040955,0.000916,0.000549
2026-05-01 15:17:05,0.0000,-0.8047,9.7695,0.999146,-0.040955,0.000916,0.000549
2026-05-01 15:17:05,-0.0391,-0.8047,9.7266,0.999146,-0.041016,0.000916,0.000549
2026-05-01 15:17:05,-0.0391,-0.8047,9.7695,0.999146,-0.041016,0.000916,0.000549
2026-05-01 15:17:05,-0.0391,-0.8047,9.7266,0.999146,-0.041016,0.000916,0.000549
2026-05-01 15:17:05,0.0000,-0.8047,9.7695,0.999146,-0.041016,0.000916,0.000549
2026-05-01 15:17:05,-0.0391,-0.8047,9.7695,0.999146,-0.041016,0.000916,0.000549
2026-05-01 15:17:06,0.0000,-0.8047,9.7266,0.999146,-0.041016,0.000916,0.000549
2026-05-01 15:17:06,-0.0391,-0.8047,9.7266,0.999146,-0.041016,0.000916,0.000549
2026-05-01 15:17:06,0.0000,-0.8047,9.7266,0.999146,-0.041016,0.000916,0.000549
2026-05-01 15:17:06,0.0000,-0.8047,9.7266,0.999146,-0.041016,0.000916,0.000549
2026-05-01 15:17:06,-0.0391,-0.8047,9.7266,0.999146,-0.041016,0.000916,0.000549
2026-05-01 15:17:06,-0.0391,-0.8047,9.7695,0.999146,-0.041016,0.000916,0.000549
2026-05-01 15:17:06,-0.0391,-0.8047,9.7266,0.999146,-0.041016,0.000916,0.000549
2026-05-01 15:17:06,-0.0391,-0.8047,9.7695,0.999146,-0.041016,0.000916,0.000549
2026-05-01 15:17:06,0.0000,-0.8438,9.7656,0.999146,-0.041016,0.000916,0.000549
2026-05-01 15:17:06,-0.0391,-0.8047,9.7695,0.999146,-0.041016,0.000916,0.000549
2026-05-01 15:17:06,0.0000,-0.8047,9.7266,0.999146,-0.041016,0.000916,0.000549
2026-05-01 15:17:06,0.0000,-0.8047,9.7266,0.999146,-0.041016,0.000916,0.000549
2026-05-01 15:17:06,0.0000,-0.8438,9.7305,0.999146,-0.041016,0.000916,0.000549
2026-05-01 15:17:06,0.0000,-0.8047,9.7266,0.999146,-0.041016,0.000916,0.000549
2026-05-01 15:17:06,0.0000,-0.8047,9.7266,0.999146,-0.041077,0.000916,0.000549
2026-05-01 15:17:06,-0.0391,-0.8047,9.7266,0.999146,-0.041077,0.000916,0.000549
2026-05-01 15:17:06,-0.0391,-0.8047,9.7695,0.999146,-0.041077,0.000916,0.000549
2026-05-01 15:17:06,0.0000,-0.8047,9.7695,0.999146,-0.041077,0.000916,0.000549
2026-05-01 15:17:06,0.0000,-0.8047,9.7266,0.999146,-0.041077,0.000916,0.000549
2026-05-01 15:17:06,0.0000,-0.8047,9.7266,0.999146,-0.041077,0.000916,0.000549
2026-05-01 15:17:06,0.0000,-0.8047,9.7695,0.999146,-0.041138,0.000916,0.000549
2026-05-01 15:17:06,0.0000,-0.8047,9.7695,0.999146,-0.041138,0.000916,0.000549
2026-05-01 15:17:06,0.0000,-0.8047,9.7695,0.999146,-0.041138,0.000916,0.000549
2026-05-01 15:17:06,0.0000,-0.8047,9.7266,0.999146,-0.041138,0.000916,0.000549
2026-05-01 15:17:06,0.0000,-0.8047,9.7266,0.999146,-0.041138,0.000916,0.000549
2026-05-01 15:17:06,-0.0391,-0.8047,9.7266,0.999146,-0.041138,0.000916,0.000549
2026-05-01 15:17:06,-0.0391,-0.8438,9.7656,0.999146,-0.041138,0.000916,0.000549
2026-05-01 15:17:06,-0.0391,-0.8047,9.7266,0.999146,-0.041138,0.000916,0.000549
2026-05-01 15:17:06,-0.0391,-0.8047,9.7695,0.999146,-0.041138,0.000916,0.000549
2026-05-01 15:17:06,-0.0391,-0.8047,9.7266,0.999146,-0.041138,0.000916,0.000549
2026-05-01 15:17:06,0.0000,-0.8438,9.7305,0.999146,-0.041138,0.000916,0.000549
2026-05-01 15:17:06,-0.0391,-0.8047,9.7266,0.999146,-0.041138,0.000916,0.000549
2026-05-01 15:17:06,0.0000,-0.8047,9.7695,0.999146,-0.041138,0.000916,0.000549
2026-05-01 15:17:06,-0.0391,-0.8047,9.7266,0.999146,-0.041138,0.000916,0.000549
2026-05-01 15:17:06,-0.0391,-0.8047,9.7695,0.999146,-0.041138,0.000916,0.000549
2026-05-01 15:17:06,0.0000,-0.8047,9.7266,0.999146,-0.041138,0.000916,0.000549
2026-05-01 15:17:06,0.0000,-0.8047,9.7266,0.999146,-0.041138,0.000916,0.000549
2026-05-01 15:17:06,0.0000,-0.8047,9.7695,0.999146,-0.041138,0.000916,0.000549
2026-05-01 15:17:06,0.0000,-0.8047,9.7266,0.999146,-0.041138,0.000977,0.000549
2026-05-01 15:17:06,0.0000,-0.8047,9.7266,0.999146,-0.041138,0.000977,0.000549
2026-05-01 15:17:06,0.0000,-0.7656,9.7266,0.999146,-0.041138,0.000977,0.000549
2026-05-01 15:17:06,-0.0391,-0.8047,9.7266,0.999146,-0.041138,0.000977,0.000549
2026-05-01 15:17:06,0.0000,-0.8047,9.7266,0.999146,-0.041138,0.000977,0.000549
2026-05-01 15:17:06,-0.0391,-0.8047,9.7695,0.999146,-0.041138,0.000977,0.000549
2026-05-01 15:17:06,-0.0391,-0.8438,9.7305,0.999146,-0.041138,0.000977,0.000549
2026-05-01 15:17:07,0.0000,-0.8047,9.7266,0.999146,-0.041138,0.000977,0.000549
2026-05-01 15:17:07,0.0000,-0.8047,9.7695,0.999146,-0.041138,0.000977,0.000549
2026-05-01 15:17:07,0.0000,-0.8047,9.7266,0.999146,-0.041138,0.000977,0.000549
2026-05-01 15:17:07,-0.0391,-0.7656,9.7695,0.999146,-0.041138,0.000977,0.000549
2026-05-01 15:17:07,-0.0391,-0.8047,9.7695,0.999146,-0.041138,0.000977,0.000549
2026-05-01 15:17:07,0.0000,-0.8047,9.7266,0.999146,-0.041138,0.000977,0.000549
2026-05-01 15:17:07,-0.0391,-0.8047,9.7695,0.999146,-0.041138,0.000977,0.000549
2026-05-01 15:17:07,-0.0391,-0.8047,9.7266,0.999146,-0.041138,0.000977,0.000549
2026-05-01 15:17:07,0.0000,-0.8047,9.7695,0.999146,-0.041138,0.000977,0.000549
2026-05-01 15:17:07,0.0000,-0.8047,9.7266,0.999146,-0.041138,0.000977,0.000549
2026-05-01 15:17:07,-0.0391,-0.8047,9.7266,0.999146,-0.041138,0.001038,0.000549
2026-05-01 15:17:07,0.0000,-0.8047,9.7695,0.999146,-0.041138,0.001038,0.000549
2026-05-01 15:17:07,0.0000,-0.8047,9.7695,0.999146,-0.041138,0.001038,0.000549
2026-05-01 15:17:07,0.0000,-0.8047,9.7695,0.999146,-0.041138,0.001038,0.000549
2026-05-01 15:17:07,0.0000,-0.8047,9.7266,0.999146,-0.041138,0.001038,0.000549
2026-05-01 15:17:07,0.0000,-0.8047,9.7695,0.999146,-0.041138,0.001038,0.000549
2026-05-01 15:17:07,0.0000,-0.8047,9.7266,0.999146,-0.041138,0.001038,0.000549
2026-05-01 15:17:07,-0.0391,-0.8047,9.7695,0.999146,-0.041138,0.001038,0.000549
2026-05-01 15:17:07,0.0000,-0.8047,9.7266,0.999146,-0.041138,0.001038,0.000549
2026-05-01 15:17:07,0.0000,-0.8047,9.7695,0.999146,-0.041138,0.001038,0.000549
2026-05-01 15:17:07,-0.0391,-0.8047,9.7695,0.999146,-0.041138,0.001038,0.000549
2026-05-01 15:17:07,0.0000,-0.8047,9.7266,0.999146,-0.041138,0.001038,0.000549
2026-05-01 15:17:07,0.0000,-0.8047,9.7695,0.999146,-0.041138,0.001038,0.000549
2026-05-01 15:17:07,-0.0391,-0.8047,9.7695,0.999146,-0.041138,0.000977,0.000549
2026-05-01 15:17:07,-0.0391,-0.8047,9.7266,0.999146,-0.041138,0.000977,0.000549
2026-05-01 15:17:07,-0.0391,-0.8047,9.7266,0.999146,-0.041138,0.000977,0.000549
2026-05-01 15:17:07,-0.0391,-0.8047,9.7266,0.999146,-0.041138,0.000977,0.000549
2026-05-01 15:17:07,-0.0391,-0.8047,9.7695,0.999146,-0.041138,0.000977,0.000549
2026-05-01 15:17:07,0.0000,-0.8047,9.7695,0.999146,-0.041138,0.000977,0.000549
2026-05-01 15:17:07,0.0000,-0.8047,9.7695,0.999146,-0.041138,0.000977,0.000549
2026-05-01 15:17:07,-0.0391,-0.8047,9.7695,0.999146,-0.041138,0.000977,0.000549
2026-05-01 15:17:07,-0.0391,-0.8438,9.7656,0.999146,-0.041138,0.000977,0.000549
2026-05-01 15:17:07,-0.0391,-0.8047,9.7695,0.999146,-0.041138,0.000977,0.000549
2026-05-01 15:17:07,-0.0391,-0.8047,9.7266,0.999146,-0.041138,0.000977,0.000549
2026-05-01 15:17:07,-0.0391,-0.7656,9.7695,0.999146,-0.041138,0.000977,0.000549
2026-05-01 15:17:07,0.0000,-0.8047,9.7695,0.999146,-0.041138,0.000977,0.000549
2026-05-01 15:17:07,-0.0391,-0.8047,9.7695,0.999146,-0.041138,0.000977,0.000549
2026-05-01 15:17:07,-0.0391,-0.8047,9.7266,0.999146,-0.041138,0.000977,0.000549
2026-05-01 15:17:07,-0.0391,-0.7656,9.7695,0.999146,-0.041138,0.000977,0.000549
2026-05-01 15:17:07,0.0000,-0.8047,9.7695,0.999146,-0.041138,0.000977,0.000549
2026-05-01 15:17:07,-0.0391,-0.8047,9.7695,0.999146,-0.041138,0.000977,0.000549
2026-05-01 15:17:07,-0.0391,-0.8047,9.7266,0.999146,-0.041138,0.000977,0.000549
2026-05-01 15:17:07,-0.0391,-0.7656,9.7695,0.999146,-0.041138,0.000977,0.000549
2026-05-01 15:17:07,-0.0391,-0.8047,9.7266,0.999146,-0.041138,0.000977,0.000549
2026-05-01 15:17:07,-0.0391,-0.8047,9.7695,0.999146,-0.041138,0.000977,0.000549
2026-05-01 15:17:07,-0.0391,-0.8047,9.7266,0.999146,-0.041138,0.000977,0.000549
2026-05-01 15:17:07,-0.0391,-0.8047,9.7266,0.999146,-0.041138,0.000977,0.000549
2026-05-01 15:17:07,0.0000,-0.8438,9.7656,0.999146,-0.041138,0.000977,0.000549
2026-05-01 15:17:07,-0.0391,-0.8047,9.7695,0.999146,-0.041138,0.000977,0.000549
2026-05-01 15:17:07,-0.0391,-0.8047,9.7266,0.999146,-0.041138,0.000977,0.000549
2026-05-01 15:17:08,0.0000,-0.8047,9.7266,0.999146,-0.041138,0.000977,0.000549
2026-05-01 15:17:08,-0.0391,-0.8047,9.6875,0.999146,-0.041138,0.000977,0.000549
2026-05-01 15:17:08,-0.0391,-0.8047,9.7695,0.999146,-0.041138,0.000977,0.000549
2026-05-01 15:17:08,-0.0391,-0.8438,9.7305,0.999146,-0.041138,0.000977,0.000549
2026-05-01 15:17:08,-0.0391,-0.8047,9.7695,0.999146,-0.041138,0.000977,0.000549
2026-05-01 15:17:08,0.0000,-0.7656,9.7266,0.999146,-0.041138,0.000977,0.000549
2026-05-01 15:17:08,0.0000,-0.8047,9.7266,0.999146,-0.041138,0.000977,0.000549
2026-05-01 15:17:08,0.0000,-0.8047,9.7695,0.999146,-0.041138,0.000977,0.000549
2026-05-01 15:17:08,0.0000,-0.8047,9.7266,0.999146,-0.041138,0.001038,0.000549
2026-05-01 15:17:08,0.0000,-0.7656,9.7695,0.999146,-0.041138,0.001038,0.000549
2026-05-01 15:17:08,0.0000,-0.8047,9.7695,0.999146,-0.041199,0.001038,0.000549
2026-05-01 15:17:08,-0.0391,-0.8047,9.7266,0.999146,-0.041199,0.001038,0.000549
2026-05-01 15:17:08,0.0000,-0.8047,9.7266,0.999146,-0.041199,0.000977,0.000549
2026-05-01 15:17:08,0.0000,-0.8047,9.7266,0.999146,-0.041199,0.000977,0.000549
2026-05-01 15:17:08,-0.0391,-0.8047,9.7266,0.999146,-0.041199,0.000977,0.000549
2026-05-01 15:17:08,-0.0391,-0.8047,9.7695,0.999146,-0.041199,0.000977,0.000549
2026-05-01 15:17:08,-0.0391,-0.8047,9.7266,0.999146,-0.041199,0.000977,0.000549
2026-05-01 15:17:08,-0.0391,-0.8047,9.7695,0.999146,-0.041199,0.000977,0.000549
2026-05-01 15:17:08,-0.0391,-0.8047,9.7266,0.999146,-0.041199,0.000977,0.000549
2026-05-01 15:17:08,-0.0391,-0.8047,9.7266,0.999146,-0.041199,0.000977,0.000549
2026-05-01 15:17:08,0.0000,-0.8047,9.7695,0.999146,-0.041199,0.000977,0.000549
2026-05-01 15:17:08,0.0000,-0.8047,9.7695,0.999146,-0.041199,0.000977,0.000549
2026-05-01 15:17:08,0.0000,-0.8047,9.7266,0.999146,-0.041199,0.000977,0.000549
2026-05-01 15:17:08,0.0000,-0.8047,9.7695,0.999146,-0.041199,0.000977,0.000549
2026-05-01 15:17:08,0.0000,-0.8047,9.7266,0.999146,-0.041199,0.000977,0.000549
2026-05-01 15:17:08,0.0000,-0.8047,9.7695,0.999146,-0.041199,0.000977,0.000549
2026-05-01 15:17:08,-0.0391,-0.8047,9.7266,0.999146,-0.041199,0.000977,0.000549
2026-05-01 15:17:08,0.0000,-0.8047,9.7695,0.999146,-0.041199,0.000977,0.000549
2026-05-01 15:17:08,-0.0391,-0.8047,9.7695,0.999146,-0.041199,0.000977,0.000549
2026-05-01 15:17:08,-0.0391,-0.8047,9.7695,0.999146,-0.041199,0.000977,0.000549
2026-05-01 15:17:08,-0.0391,-0.8047,9.7695,0.999146,-0.041199,0.000977,0.000549
2026-05-01 15:17:08,0.0000,-0.8047,9.7266,0.999146,-0.041199,0.000916,0.000549
2026-05-01 15:17:08,0.0000,-0.7656,9.7695,0.999146,-0.041199,0.000916,0.000549
2026-05-01 15:17:08,-0.0391,-0.8047,9.7266,0.999146,-0.041199,0.000977,0.000549
2026-05-01 15:17:08,-0.0391,-0.8047,9.7695,0.999146,-0.041199,0.000977,0.000549
2026-05-01 15:17:08,0.0000,-0.8047,9.7695,0.999146,-0.041199,0.000977,0.000549
2026-05-01 15:17:08,-0.0391,-0.8438,9.7305,0.999146,-0.041199,0.000977,0.000549
2026-05-01 15:17:08,-0.0391,-0.8047,9.7266,0.999146,-0.041199,0.000977,0.000549
2026-05-01 15:17:08,0.0000,-0.8047,9.7695,0.999146,-0.041199,0.000977,0.000549
2026-05-01 15:17:08,0.0000,-0.8047,9.7266,0.999146,-0.041199,0.000977,0.000549
2026-05-01 15:17:08,0.0000,-0.8047,9.7266,0.999146,-0.041199,0.000977,0.000549
2026-05-01 15:17:08,0.0000,-0.8047,9.7266,0.999146,-0.041199,0.000977,0.000549
2026-05-01 15:17:08,-0.0391,-0.8047,9.7266,0.999146,-0.041199,0.000977,0.000549
2026-05-01 15:17:08,-0.0391,-0.8047,9.7695,0.999146,-0.041199,0.000977,0.000549
2026-05-01 15:17:08,0.0000,-0.8047,9.7266,0.999146,-0.041199,0.000977,0.000549
2026-05-01 15:17:08,0.0000,-0.8047,9.7266,0.999146,-0.041199,0.000977,0.000549
2026-05-01 15:17:08,-0.0391,-0.8047,9.8086,0.999146,-0.041199,0.000977,0.000549
2026-05-01 15:17:08,-0.0391,-0.8047,9.7266,0.999146,-0.041199,0.000977,0.000549
2026-05-01 15:17:08,0.0000,-0.8047,9.7266,0.999146,-0.041199,0.000977,0.000549
2026-05-01 15:17:08,0.0000,-0.7656,9.7695,0.999146,-0.041199,0.000977,0.000549
2026-05-01 15:17:09,0.0000,-0.8047,9.7266,0.999146,-0.041199,0.000977,0.000549
2026-05-01 15:17:09,0.0000,-0.8047,9.7695,0.999146,-0.041199,0.000977,0.000549
2026-05-01 15:17:09,-0.0391,-0.8047,9.7695,0.999146,-0.041199,0.000977,0.000549
2026-05-01 15:17:09,0.0000,-0.8047,9.7266,0.999146,-0.041199,0.000977,0.000549
2026-05-01 15:17:09,-0.0391,-0.7656,9.7695,0.999146,-0.041199,0.000977,0.000549
2026-05-01 15:17:09,-0.0391,-0.8047,9.7695,0.999146,-0.041199,0.000977,0.000549
2026-05-01 15:17:09,0.0000,-0.8047,9.7695,0.999146,-0.041199,0.000977,0.000549
2026-05-01 15:17:09,0.0000,-0.8438,9.7305,0.999146,-0.041199,0.000977,0.000549
2026-05-01 15:17:09,-0.0391,-0.8047,9.7695,0.999146,-0.041199,0.000977,0.000549
2026-05-01 15:17:09,0.0000,-0.7656,9.7695,0.999146,-0.041199,0.000977,0.000549
2026-05-01 15:17:09,0.0000,-0.8047,9.7695,0.999146,-0.041199,0.000977,0.000549
2026-05-01 15:17:09,-0.0391,-0.8047,9.7695,0.999146,-0.041199,0.000977,0.000549
2026-05-01 15:17:09,0.0000,-0.8438,9.7656,0.999146,-0.041199,0.000977,0.000549
2026-05-01 15:17:09,-0.0391,-0.8047,9.7695,0.999146,-0.041199,0.000977,0.000549
2026-05-01 15:17:09,-0.0391,-0.8047,9.7695,0.999146,-0.041199,0.000977,0.000549
2026-05-01 15:17:09,-0.0391,-0.8047,9.7266,0.999146,-0.041199,0.000977,0.000549
2026-05-01 15:17:09,-0.0391,-0.8047,9.7695,0.999146,-0.041199,0.000977,0.000549
2026-05-01 15:17:09,0.0000,-0.8047,9.7266,0.999146,-0.041199,0.000977,0.000549
2026-05-01 15:17:09,-0.0391,-0.8047,9.7266,0.999146,-0.041199,0.000977,0.000549
2026-05-01 15:17:09,-0.0391,-0.8047,9.7695,0.999146,-0.041199,0.000977,0.000549
2026-05-01 15:17:09,0.0000,-0.8047,9.7266,0.999146,-0.041199,0.000977,0.000549
2026-05-01 15:17:09,0.0000,-0.8047,9.7695,0.999146,-0.041199,0.000916,0.000549
2026-05-01 15:17:09,0.0000,-0.8047,9.7266,0.999146,-0.041199,0.000916,0.000549
2026-05-01 15:17:09,0.0000,-0.8047,9.7695,0.999146,-0.041199,0.000916,0.000549
2026-05-01 15:17:09,-0.0391,-0.8047,9.7695,0.999146,-0.041199,0.000916,0.000549
2026-05-01 15:17:09,-0.0391,-0.7656,9.7266,0.999146,-0.041199,0.000916,0.000549
2026-05-01 15:17:09,-0.0391,-0.8438,9.7305,0.999146,-0.041199,0.000916,0.000549
2026-05-01 15:17:09,-0.0391,-0.8047,9.7695,0.999146,-0.041199,0.000916,0.000549
2026-05-01 15:17:09,-0.0391,-0.8438,9.7305,0.999146,-0.041199,0.000916,0.000549
2026-05-01 15:17:09,-0.0391,-0.8438,9.7305,0.999146,-0.041199,0.000916,0.000549
2026-05-01 15:17:09,-0.0391,-0.8047,9.7266,0.999146,-0.041199,0.000916,0.000549
2026-05-01 15:17:09,0.0000,-0.8047,9.7695,0.999146,-0.041199,0.000916,0.000549
2026-05-01 15:17:09,0.0000,-0.7656,9.7266,0.999146,-0.041199,0.000916,0.000549
2026-05-01 15:17:09,-0.0391,-0.8047,9.7695,0.999146,-0.041199,0.000916,0.000549
2026-05-01 15:17:09,0.0000,-0.8438,9.7656,0.999146,-0.041199,0.000916,0.000549
2026-05-01 15:17:09,-0.0391,-0.7656,9.7266,0.999146,-0.041199,0.000916,0.000549
2026-05-01 15:17:09,0.0000,-0.8047,9.7266,0.999146,-0.041199,0.000916,0.000549
2026-05-01 15:17:09,-0.0391,-0.8047,9.7266,0.999146,-0.041199,0.000916,0.000549
2026-05-01 15:17:09,0.0000,-0.8047,9.7695,0.999146,-0.041199,0.000916,0.000549
2026-05-01 15:17:09,0.0000,-0.8047,9.7266,0.999146,-0.041199,0.000916,0.000549
2026-05-01 15:17:09,0.0000,-0.7656,9.7266,0.999146,-0.041199,0.000916,0.000549
2026-05-01 15:17:09,0.0000,-0.8047,9.7695,0.999146,-0.041199,0.000916,0.000549
2026-05-01 15:17:09,-0.0391,-0.8047,9.7266,0.999146,-0.041199,0.000916,0.000549
2026-05-01 15:17:09,0.0000,-0.8047,9.7695,0.999146,-0.041199,0.000916,0.000549
2026-05-01 15:17:09,0.0000,-0.8047,9.7266,0.999146,-0.041199,0.000916,0.000549
2026-05-01 15:17:09,0.0000,-0.8438,9.7656,0.999146,-0.041199,0.000916,0.000549
2026-05-01 15:17:09,-0.0391,-0.8047,9.7266,0.999146,-0.041199,0.000916,0.000549
2026-05-01 15:17:09,0.0000,-0.8047,9.7266,0.999146,-0.041199,0.000916,0.000549
2026-05-01 15:17:09,-0.0391,-0.8047,9.7695,0.999146,-0.041199,0.000916,0.000549
2026-05-01 15:17:09,-0.0391,-0.8047,9.7695,0.999146,-0.041199,0.000916,0.000549
2026-05-01 15:17:10,-0.0391,-0.8047,9.7695,0.999146,-0.041199,0.000916,0.000549
2026-05-01 15:17:10,-0.0391,-0.8047,9.7695,0.999146,-0.041199,0.000916,0.000549
2026-05-01 15:17:10,-0.0391,-0.8047,9.7695,0.999146,-0.041199,0.000916,0.000549
2026-05-01 15:17:10,-0.0391,-0.8047,9.7266,0.999146,-0.041199,0.000916,0.000549
2026-05-01 15:17:10,-0.0391,-0.8047,9.7266,0.999146,-0.041199,0.000916,0.000549
2026-05-01 15:17:10,0.0000,-0.8047,9.7266,0.999146,-0.041199,0.000916,0.000549
2026-05-01 15:17:10,0.0000,-0.8047,9.7266,0.999146,-0.041199,0.000916,0.000549
2026-05-01 15:17:10,0.0000,-0.8047,9.7266,0.999146,-0.041199,0.000916,0.000549
2026-05-01 15:17:10,0.0000,-0.7656,9.7266,0.999146,-0.041199,0.000916,0.000549
2026-05-01 15:17:10,0.0000,-0.8047,9.7695,0.999146,-0.041199,0.000916,0.000549
2026-05-01 15:17:10,-0.0391,-0.8047,9.7695,0.999146,-0.041199,0.000916,0.000549
2026-05-01 15:17:10,0.0000,-0.8047,9.7266,0.999146,-0.041199,0.000916,0.000549
2026-05-01 15:17:10,-0.0391,-0.8047,9.7695,0.999146,-0.041199,0.000916,0.000549
2026-05-01 15:17:10,-0.0391,-0.8047,9.7266,0.999146,-0.041199,0.000916,0.000549
2026-05-01 15:17:10,0.0000,-0.8047,9.7266,0.999146,-0.041199,0.000916,0.000549
2026-05-01 15:17:10,0.0000,-0.8047,9.7266,0.999146,-0.041199,0.000916,0.000549
2026-05-01 15:17:10,-0.0391,-0.8047,9.7266,0.999146,-0.041199,0.000916,0.000549
2026-05-01 15:17:10,0.0000,-0.8047,9.7266,0.999146,-0.041199,0.000977,0.000549
2026-05-01 15:17:10,-0.0391,-0.8047,9.7695,0.999146,-0.041199,0.000977,0.000549
2026-05-01 15:17:10,0.0000,-0.8047,9.7695,0.999146,-0.041199,0.000977,0.000549
2026-05-01 15:17:10,-0.0391,-0.8047,9.7695,0.999146,-0.041199,0.000977,0.000549
2026-05-01 15:17:10,-0.0391,-0.8047,9.7695,0.999146,-0.041199,0.000977,0.000549
2026-05-01 15:17:10,0.0000,-0.8047,9.7266,0.999146,-0.041199,0.000977,0.000549
2026-05-01 15:17:10,-0.0391,-0.7656,9.7266,0.999146,-0.041199,0.000977,0.000549
2026-05-01 15:17:10,0.0000,-0.8047,9.7266,0.999146,-0.041199,0.000977,0.000549
2026-05-01 15:17:10,0.0000,-0.8047,9.7695,0.999146,-0.041199,0.000977,0.000549
2026-05-01 15:17:10,0.0000,-0.8047,9.7695,0.999146,-0.041199,0.000977,0.000549
2026-05-01 15:17:10,-0.0391,-0.8047,9.7695,0.999146,-0.041199,0.000977,0.000549
2026-05-01 15:17:10,0.0000,-0.8047,9.7695,0.999146,-0.041199,0.000977,0.000549
2026-05-01 15:17:10,-0.0391,-0.8047,9.7266,0.999146,-0.041199,0.000977,0.000549
2026-05-01 15:17:10,-0.0391,-0.8438,9.7656,0.999146,-0.041199,0.000977,0.000549
2026-05-01 15:17:10,-0.0391,-0.8047,9.7695,0.999146,-0.041199,0.000977,0.000549
2026-05-01 15:17:10,-0.0391,-0.8047,9.7266,0.999146,-0.041199,0.000977,0.000549
2026-05-01 15:17:10,-0.0391,-0.7656,9.7266,0.999146,-0.041199,0.000977,0.000549
2026-05-01 15:17:10,-0.0391,-0.8047,9.7266,0.999146,-0.041199,0.000977,0.000549
2026-05-01 15:17:10,0.0000,-0.8047,9.7695,0.999146,-0.041199,0.000977,0.000549
2026-05-01 15:17:10,0.0000,-0.8047,9.7266,0.999146,-0.041199,0.000977,0.000549
2026-05-01 15:17:10,0.0000,-0.8047,9.7695,0.999146,-0.041199,0.000977,0.000549
2026-05-01 15:17:10,0.0000,-0.8047,9.7695,0.999146,-0.041199,0.000977,0.000549
2026-05-01 15:17:10,-0.0391,-0.8047,9.7695,0.999146,-0.041199,0.000977,0.000549
2026-05-01 15:17:10,0.0000,-0.8047,9.7266,0.999146,-0.041199,0.000977,0.000549
2026-05-01 15:17:10,-0.0391,-0.8047,9.7266,0.999146,-0.041199,0.000977,0.000549
2026-05-01 15:17:10,-0.0391,-0.8047,9.7266,0.999146,-0.041199,0.000977,0.000549
2026-05-01 15:17:10,-0.0391,-0.8047,9.7695,0.999146,-0.041199,0.000977,0.000549
2026-05-01 15:17:10,-0.0391,-0.8047,9.7266,0.999146,-0.041199,0.000977,0.000549
2026-05-01 15:17:10,-0.0391,-0.8047,9.7266,0.999146,-0.041199,0.000977,0.000549
2026-05-01 15:17:10,-0.0391,-0.8047,9.7695,0.999146,-0.041199,0.000977,0.000549
2026-05-01 15:17:10,-0.0391,-0.8047,9.7695,0.999146,-0.041199,0.000977,0.000549
2026-05-01 15:17:10,-0.0391,-0.8047,9.7266,0.999146,-0.041199,0.000977,0.000549
2026-05-01 15:17:10,0.0000,-0.8047,9.7695,0.999146,-0.041199,0.000977,0.000549
2026-05-01 15:17:11,-0.0391,-0.8047,9.7695,0.999146,-0.041199,0.000977,0.000549
2026-05-01 15:17:11,-0.0391,-0.8047,9.8086,0.999146,-0.041199,0.000977,0.000549
2026-05-01 15:17:11,-0.0391,-0.8047,9.8086,0.999146,-0.041199,0.000977,0.000549
2026-05-01 15:17:11,-0.0391,-0.8438,9.7305,0.999146,-0.041199,0.000977,0.000549
2026-05-01 15:17:11,-0.0391,-0.8047,9.7266,0.999146,-0.041199,0.000977,0.000549
2026-05-01 15:17:11,0.0000,-0.8047,9.7266,0.999146,-0.041199,0.000977,0.000549
2026-05-01 15:17:11,0.0000,-0.8047,9.7695,0.999146,-0.041199,0.000977,0.000549
2026-05-01 15:17:11,0.0000,-0.8047,9.7695,0.999146,-0.041199,0.000977,0.000549
2026-05-01 15:17:11,-0.0391,-0.8047,9.7266,0.999146,-0.041199,0.000977,0.000549
2026-05-01 15:17:11,-0.0391,-0.8047,9.7695,0.999146,-0.041199,0.000977,0.000549
2026-05-01 15:17:11,0.0000,-0.8047,9.7266,0.999146,-0.041199,0.000977,0.000549
2026-05-01 15:17:11,-0.0391,-0.8047,9.7695,0.999146,-0.041199,0.000977,0.000549
2026-05-01 15:17:11,0.0000,-0.8047,9.7695,0.999146,-0.041199,0.000977,0.000549
2026-05-01 15:17:11,-0.0391,-0.8047,9.7266,0.999146,-0.041199,0.000977,0.000549
2026-05-01 15:17:11,-0.0391,-0.8047,9.7266,0.999146,-0.041199,0.000977,0.000549
2026-05-01 15:17:11,0.0000,-0.8047,9.7695,0.999146,-0.041199,0.000977,0.000549
2026-05-01 15:17:11,0.0000,-0.8047,9.7695,0.999146,-0.041199,0.000977,0.000549
2026-05-01 15:17:11,0.0000,-0.8047,9.7695,0.999146,-0.041199,0.000977,0.000549
2026-05-01 15:17:11,0.0000,-0.8047,9.7266,0.999146,-0.041199,0.000977,0.000549
2026-05-01 15:17:11,0.0000,-0.8047,9.7266,0.999146,-0.041199,0.000977,0.000549
2026-05-01 15:17:11,0.0000,-0.7656,9.7266,0.999146,-0.041199,0.000977,0.000549
2026-05-01 15:17:11,0.0000,-0.8047,9.7266,0.999146,-0.041199,0.000977,0.000549
2026-05-01 15:17:11,-0.0391,-0.8047,9.7695,0.999146,-0.041199,0.000977,0.000549
2026-05-01 15:17:11,-0.0391,-0.8047,9.7266,0.999146,-0.041199,0.000977,0.000549
2026-05-01 15:17:11,0.0000,-0.8047,9.7266,0.999146,-0.041199,0.000977,0.000549
2026-05-01 15:17:11,-0.0391,-0.8047,9.7266,0.999146,-0.041199,0.000977,0.000549
2026-05-01 15:17:11,0.0000,-0.8047,9.7266,0.999146,-0.041199,0.000977,0.000549
2026-05-01 15:17:11,0.0000,-0.8047,9.7266,0.999146,-0.041199,0.000977,0.000549
2026-05-01 15:17:11,0.0000,-0.8047,9.7266,0.999146,-0.041199,0.000977,0.000549
2026-05-01 15:17:11,-0.0391,-0.8047,9.7266,0.999146,-0.041199,0.000977,0.000549
2026-05-01 15:17:11,0.0000,-0.8047,9.7695,0.999146,-0.041199,0.000977,0.000549
2026-05-01 15:17:11,0.0000,-0.8047,9.7695,0.999146,-0.041199,0.000977,0.000549
2026-05-01 15:17:11,0.0000,-0.8047,9.7695,0.999146,-0.041199,0.000977,0.000549
2026-05-01 15:17:11,-0.0391,-0.8047,9.7695,0.999146,-0.041199,0.000977,0.000549
2026-05-01 15:17:11,-0.0391,-0.8047,9.7266,0.999146,-0.041199,0.000977,0.000549
2026-05-01 15:17:11,0.0000,-0.8047,9.7266,0.999146,-0.041199,0.000977,0.000549
2026-05-01 15:17:11,0.0000,-0.8047,9.7695,0.999146,-0.041199,0.000916,0.000549
2026-05-01 15:17:11,0.0000,-0.8047,9.7695,0.999146,-0.041199,0.000916,0.000549
2026-05-01 15:17:11,-0.0391,-0.8047,9.7266,0.999146,-0.041199,0.000916,0.000549
2026-05-01 15:17:11,-0.0391,-0.8047,9.7695,0.999146,-0.041199,0.000916,0.000549
2026-05-01 15:17:11,0.0000,-0.8047,9.7695,0.999146,-0.041199,0.000916,0.000549
2026-05-01 15:17:11,-0.0391,-0.8047,9.7266,0.999146,-0.041199,0.000916,0.000549
2026-05-01 15:17:11,-0.0391,-0.8047,9.7266,0.999146,-0.041199,0.000916,0.000549
2026-05-01 15:17:11,0.0000,-0.7656,9.7266,0.999146,-0.041199,0.000916,0.000549
2026-05-01 15:17:11,-0.0391,-0.8047,9.7695,0.999146,-0.041199,0.000916,0.000549
2026-05-01 15:17:11,-0.0391,-0.8047,9.7266,0.999146,-0.041199,0.000916,0.000549
2026-05-01 15:17:11,-0.0391,-0.8047,9.7266,0.999146,-0.041199,0.000916,0.000549
2026-05-01 15:17:11,-0.0391,-0.8047,9.7695,0.999146,-0.041199,0.000916,0.000549
2026-05-01 15:17:12,-0.0391,-0.8047,9.7695,0.999146,-0.041199,0.000916,0.000549
2026-05-01 15:17:12,0.0000,-0.8047,9.7266,0.999146,-0.041199,0.000916,0.000549
2026-05-01 15:17:12,0.0000,-0.8047,9.7266,0.999146,-0.041138,0.000916,0.000549
2026-05-01 15:17:12,-0.0391,-0.7656,9.7266,0.999146,-0.041138,0.000916,0.000549
2026-05-01 15:17:12,0.0000,-0.8047,9.7695,0.999146,-0.041138,0.000916,0.000549
2026-05-01 15:17:12,-0.0391,-0.8047,9.7695,0.999146,-0.041138,0.000916,0.000549
2026-05-01 15:17:12,-0.0391,-0.8047,9.7266,0.999146,-0.041138,0.000916,0.000549
2026-05-01 15:17:12,0.0000,-0.8047,9.7695,0.999146,-0.041138,0.000916,0.000549
2026-05-01 15:17:12,0.0000,-0.8047,9.7695,0.999146,-0.041138,0.000916,0.000549
2026-05-01 15:17:12,-0.0391,-0.8047,9.7266,0.999146,-0.041138,0.000916,0.000549
2026-05-01 15:17:12,-0.0391,-0.8047,9.7266,0.999146,-0.041138,0.000916,0.000549
2026-05-01 15:17:12,-0.0391,-0.8047,9.7266,0.999146,-0.041138,0.000916,0.000549
2026-05-01 15:17:12,-0.0391,-0.8047,9.7695,0.999146,-0.041077,0.000916,0.000549
2026-05-01 15:17:12,-0.0391,-0.8047,9.7266,0.999146,-0.041077,0.000916,0.000549
2026-05-01 15:17:12,-0.0391,-0.8047,9.7695,0.999146,-0.041077,0.000916,0.000549
2026-05-01 15:17:12,-0.0391,-0.8047,9.7695,0.999146,-0.041077,0.000916,0.000549
2026-05-01 15:17:12,-0.0391,-0.7656,9.7695,0.999146,-0.041077,0.000916,0.000488
2026-05-01 15:17:12,-0.0391,-0.8047,9.7695,0.999146,-0.041077,0.000916,0.000488
2026-05-01 15:17:12,-0.0391,-0.8047,9.7266,0.999146,-0.041077,0.000916,0.000488
2026-05-01 15:17:12,0.0000,-0.8047,9.7695,0.999146,-0.041077,0.000916,0.000488
2026-05-01 15:17:12,-0.0391,-0.8047,9.7695,0.999146,-0.041077,0.000916,0.000488
2026-05-01 15:17:12,-0.0391,-0.8438,9.7305,0.999146,-0.041077,0.000916,0.000488
2026-05-01 15:17:12,0.0000,-0.8047,9.7695,0.999146,-0.041077,0.000916,0.000488
2026-05-01 15:17:12,0.0000,-0.8047,9.7695,0.999146,-0.041077,0.000916,0.000488
2026-05-01 15:17:12,-0.0391,-0.7656,9.7266,0.999146,-0.041077,0.000916,0.000488
2026-05-01 15:17:12,0.0000,-0.8047,9.7695,0.999146,-0.041077,0.000916,0.000549
2026-05-01 15:17:12,-0.0391,-0.8047,9.7695,0.999146,-0.041077,0.000916,0.000549
2026-05-01 15:17:12,0.0000,-0.8047,9.7695,0.999146,-0.041077,0.000916,0.000549
2026-05-01 15:17:12,0.0000,-0.7656,9.7695,0.999146,-0.041077,0.000916,0.000549
2026-05-01 15:17:12,-0.0391,-0.8438,9.7656,0.999146,-0.041077,0.000916,0.000549
2026-05-01 15:17:12,-0.0391,-0.8047,9.7266,0.999146,-0.041077,0.000916,0.000549
2026-05-01 15:17:12,-0.0391,-0.8047,9.7695,0.999146,-0.041077,0.000916,0.000549
2026-05-01 15:17:12,0.0000,-0.8047,9.7695,0.999146,-0.041077,0.000977,0.000549
2026-05-01 15:17:12,-0.0391,-0.8047,9.7266,0.999146,-0.041077,0.000977,0.000549
2026-05-01 15:17:12,-0.0391,-0.8047,9.7266,0.999146,-0.041077,0.000977,0.000549
2026-05-01 15:17:12,-0.0391,-0.8438,9.7656,0.999146,-0.041077,0.000977,0.000549
2026-05-01 15:17:12,0.0000,-0.8047,9.7266,0.999146,-0.041077,0.000977,0.000549
2026-05-01 15:17:12,0.0000,-0.8047,9.7266,0.999146,-0.041077,0.000977,0.000549
2026-05-01 15:17:12,0.0000,-0.8047,9.7266,0.999146,-0.041077,0.000977,0.000549
2026-05-01 15:17:12,0.0000,-0.8047,9.7266,0.999146,-0.041077,0.000977,0.000549
2026-05-01 15:17:12,0.0000,-0.8047,9.7695,0.999146,-0.041077,0.000977,0.000549
2026-05-01 15:17:12,-0.0391,-0.8047,9.7266,0.999146,-0.041077,0.000977,0.000549
2026-05-01 15:17:12,-0.0391,-0.7656,9.7695,0.999146,-0.041077,0.000977,0.000549
2026-05-01 15:17:12,-0.0391,-0.8047,9.7266,0.999146,-0.041077,0.000977,0.000549
2026-05-01 15:17:12,-0.0391,-0.8047,9.7695,0.999146,-0.041077,0.000977,0.000549
2026-05-01 15:17:12,0.0000,-0.8047,9.7266,0.999146,-0.041077,0.000977,0.000549
2026-05-01 15:17:12,-0.0391,-0.8047,9.7266,0.999146,-0.041077,0.000977,0.000549
2026-05-01 15:17:12,0.0000,-0.8047,9.7695,0.999146,-0.041077,0.000977,0.000549
2026-05-01 15:17:12,0.0000,-0.8047,9.7695,0.999146,-0.041077,0.000977,0.000549
2026-05-01 15:17:12,-0.0391,-0.8047,9.7266,0.999146,-0.041077,0.000977,0.000549
2026-05-01 15:17:12,-0.0391,-0.8047,9.7266,0.999146,-0.041077,0.000977,0.000549
2026-05-01 15:17:13,-0.0391,-0.8047,9.7695,0.999146,-0.041077,0.000977,0.000549
2026-05-01 15:17:13,-0.0391,-0.8047,9.7695,0.999146,-0.041077,0.001038,0.000549
2026-05-01 15:17:13,0.0000,-0.8438,9.7656,0.999146,-0.041077,0.001038,0.000549
2026-05-01 15:17:13,-0.0391,-0.8047,9.7695,0.999146,-0.041077,0.001038,0.000549
2026-05-01 15:17:13,0.0000,-0.8047,9.7695,0.999146,-0.041077,0.001038,0.000549
2026-05-01 15:17:13,-0.0391,-0.8047,9.7266,0.999146,-0.041077,0.001038,0.000549
2026-05-01 15:17:13,-0.0391,-0.8047,9.7266,0.999146,-0.041077,0.001038,0.000549
2026-05-01 15:17:13,-0.0391,-0.8438,9.7656,0.999146,-0.041077,0.001038,0.000549
2026-05-01 15:17:13,0.0000,-0.8047,9.7695,0.999146,-0.041077,0.001038,0.000549
2026-05-01 15:17:13,-0.0391,-0.8047,9.7266,0.999146,-0.041077,0.001038,0.000549
2026-05-01 15:17:13,0.0000,-0.8047,9.7695,0.999146,-0.041077,0.001038,0.000549
2026-05-01 15:17:13,0.0000,-0.7656,9.7695,0.999146,-0.041138,0.001038,0.000549
2026-05-01 15:17:13,0.0000,-0.8047,9.7695,0.999146,-0.041138,0.001038,0.000549
2026-05-01 15:17:13,0.0000,-0.8047,9.7266,0.999146,-0.041138,0.001038,0.000549
2026-05-01 15:17:13,0.0000,-0.8047,9.7695,0.999146,-0.041138,0.001038,0.000549
2026-05-01 15:17:13,0.0000,-0.8047,9.7695,0.999146,-0.041138,0.001038,0.000549
2026-05-01 15:17:13,0.0000,-0.8047,9.7695,0.999146,-0.041138,0.001038,0.000549
2026-05-01 15:17:13,0.0000,-0.8438,9.7656,0.999146,-0.041138,0.001038,0.000549
2026-05-01 15:17:13,0.0000,-0.8047,9.7695,0.999146,-0.041138,0.001038,0.000549
2026-05-01 15:17:13,-0.0391,-0.8047,9.7266,0.999146,-0.041138,0.001038,0.000549
2026-05-01 15:17:13,-0.0391,-0.8047,9.7266,0.999146,-0.041138,0.001038,0.000549
2026-05-01 15:17:13,0.0000,-0.7656,9.7695,0.999146,-0.041138,0.001038,0.000549
2026-05-01 15:17:13,0.0000,-0.8047,9.7266,0.999146,-0.041138,0.001038,0.000549
2026-05-01 15:17:13,0.0000,-0.8047,9.7266,0.999146,-0.041138,0.001038,0.000549
2026-05-01 15:17:13,0.0000,-0.8438,9.7656,0.999146,-0.041138,0.001038,0.000488
2026-05-01 15:17:13,-0.0391,-0.8047,9.7695,0.999146,-0.041138,0.001038,0.000488
2026-05-01 15:17:13,0.0000,-0.8047,9.7695,0.999146,-0.041138,0.001099,0.000488
2026-05-01 15:17:13,0.0000,-0.7656,9.7266,0.999146,-0.041138,0.001099,0.000488
2026-05-01 15:17:13,0.0000,-0.8047,9.7695,0.999146,-0.041138,0.001099,0.000488
2026-05-01 15:17:13,0.0000,-0.8047,9.7695,0.999146,-0.041138,0.001099,0.000488
2026-05-01 15:17:13,0.0000,-0.8047,9.7695,0.999146,-0.041138,0.001099,0.000488
2026-05-01 15:17:13,-0.0391,-0.8047,9.7266,0.999146,-0.041138,0.001038,0.000488
2026-05-01 15:17:13,0.0000,-0.8047,9.7266,0.999146,-0.041138,0.001038,0.000488
2026-05-01 15:17:13,0.0000,-0.7656,9.7695,0.999146,-0.041138,0.001038,0.000488
2026-05-01 15:17:13,-0.0391,-0.8047,9.7695,0.999146,-0.041138,0.001038,0.000488
2026-05-01 15:17:13,0.0000,-0.8047,9.7266,0.999146,-0.041138,0.001038,0.000488
2026-05-01 15:17:13,0.0000,-0.8047,9.7695,0.999146,-0.041138,0.001038,0.000488
2026-05-01 15:17:13,0.0000,-0.8047,9.7695,0.999146,-0.041138,0.001038,0.000488
2026-05-01 15:17:13,0.0000,-0.8047,9.7266,0.999146,-0.041138,0.001038,0.000488
2026-05-01 15:17:13,-0.0391,-0.7656,9.7695,0.999146,-0.041138,0.001038,0.000488
2026-05-01 15:17:13,-0.0391,-0.8047,9.7266,0.999146,-0.041138,0.001038,0.000488
2026-05-01 15:17:13,0.0000,-0.8047,9.7695,0.999146,-0.041138,0.001038,0.000488
2026-05-01 15:17:13,-0.0391,-0.8438,9.7305,0.999146,-0.041138,0.001038,0.000488
2026-05-01 15:17:13,0.0000,-0.8047,9.7695,0.999146,-0.041138,0.001038,0.000488
2026-05-01 15:17:13,0.0000,-0.8438,9.7305,0.999146,-0.041138,0.001038,0.000488
2026-05-01 15:17:13,-0.0391,-0.8047,9.7695,0.999146,-0.041138,0.000977,0.000488
2026-05-01 15:17:13,-0.0391,-0.8047,9.7266,0.999146,-0.041138,0.000977,0.000488
2026-05-01 15:17:13,0.0000,-0.8047,9.7695,0.999146,-0.041138,0.000977,0.000488
2026-05-01 15:17:13,0.0000,-0.8438,9.7305,0.999146,-0.041138,0.000977,0.000488
2026-05-01 15:17:13,0.0000,-0.8047,9.7695,0.999146,-0.041138,0.001038,0.000488
2026-05-01 15:17:13,-0.0391,-0.8047,9.7695,0.999146,-0.041138,0.001038,0.000488
2026-05-01 15:17:14,-0.0391,-0.8047,9.7266,0.999146,-0.041138,0.001038,0.000488
2026-05-01 15:17:14,-0.0391,-0.8047,9.7695,0.999146,-0.041138,0.001038,0.000488
2026-05-01 15:17:14,-0.0391,-0.8047,9.7695,0.999146,-0.041138,0.001038,0.000488
2026-05-01 15:17:14,-0.0391,-0.8047,9.7695,0.999146,-0.041138,0.001038,0.000488
2026-05-01 15:17:14,0.0000,-0.7656,9.7266,0.999146,-0.041138,0.001038,0.000488
2026-05-01 15:17:14,-0.0391,-0.8047,9.7266,0.999146,-0.041138,0.001038,0.000488
2026-05-01 15:17:14,0.0000,-0.7656,9.7266,0.999146,-0.041138,0.001038,0.000488
2026-05-01 15:17:14,0.0000,-0.8047,9.7266,0.999146,-0.041138,0.001038,0.000488
2026-05-01 15:17:14,0.0000,-0.8047,9.7266,0.999146,-0.041138,0.001038,0.000488
2026-05-01 15:17:14,0.0000,-0.8047,9.7695,0.999146,-0.041138,0.001038,0.000488
2026-05-01 15:17:14,-0.0391,-0.8047,9.7695,0.999146,-0.041138,0.001038,0.000488
2026-05-01 15:17:14,-0.0391,-0.8047,9.7266,0.999146,-0.041138,0.001038,0.000488
2026-05-01 15:17:14,-0.0391,-0.8047,9.7266,0.999146,-0.041138,0.001038,0.000488
2026-05-01 15:17:14,-0.0391,-0.8047,9.7266,0.999146,-0.041138,0.001038,0.000488
2026-05-01 15:17:14,-0.0391,-0.7656,9.7266,0.999146,-0.041138,0.001038,0.000488
2026-05-01 15:17:14,0.0000,-0.8047,9.7695,0.999146,-0.041138,0.001038,0.000488
2026-05-01 15:17:14,0.0000,-0.8047,9.7695,0.999146,-0.041138,0.001038,0.000488
2026-05-01 15:17:14,0.0000,-0.8047,9.7266,0.999146,-0.041138,0.001038,0.000488
2026-05-01 15:17:14,-0.0391,-0.8047,9.7266,0.999146,-0.041138,0.001038,0.000488
2026-05-01 15:17:14,-0.0391,-0.8047,9.7695,0.999146,-0.041138,0.000977,0.000488
2026-05-01 15:17:14,0.0000,-0.8047,9.7695,0.999146,-0.041138,0.000977,0.000488
2026-05-01 15:17:14,-0.0391,-0.8047,9.7266,0.999146,-0.041138,0.000977,0.000488
2026-05-01 15:17:14,-0.0391,-0.8047,9.7695,0.999146,-0.041138,0.001038,0.000488
2026-05-01 15:17:14,-0.0391,-0.8047,9.7266,0.999146,-0.041138,0.001038,0.000488
2026-05-01 15:17:14,-0.0391,-0.8047,9.7266,0.999146,-0.041138,0.001038,0.000488
2026-05-01 15:17:14,0.0000,-0.8047,9.7695,0.999146,-0.041138,0.001038,0.000488
2026-05-01 15:17:14,-0.0391,-0.8047,9.7266,0.999146,-0.041138,0.001038,0.000488
2026-05-01 15:17:14,-0.0391,-0.8047,9.7266,0.999146,-0.041138,0.001038,0.000488
2026-05-01 15:17:14,0.0000,-0.8047,9.7266,0.999146,-0.041138,0.001038,0.000488
2026-05-01 15:17:14,0.0000,-0.8047,9.7695,0.999146,-0.041138,0.001038,0.000488
2026-05-01 15:17:14,0.0000,-0.8047,9.7695,0.999146,-0.041138,0.001038,0.000488
2026-05-01 15:17:14,-0.0391,-0.8047,9.7695,0.999146,-0.041138,0.001038,0.000488
2026-05-01 15:17:14,-0.0391,-0.8047,9.7266,0.999146,-0.041138,0.001038,0.000488
2026-05-01 15:17:14,-0.0391,-0.8438,9.7305,0.999146,-0.041138,0.001038,0.000488
2026-05-01 15:17:14,-0.0391,-0.8047,9.7266,0.999146,-0.041138,0.001038,0.000488
2026-05-01 15:17:14,-0.0391,-0.8047,9.7266,0.999146,-0.041138,0.001038,0.000488
2026-05-01 15:17:14,-0.0391,-0.8047,9.7266,0.999146,-0.041138,0.001038,0.000488
2026-05-01 15:17:14,0.0000,-0.8047,9.7695,0.999146,-0.041138,0.001038,0.000488
2026-05-01 15:17:14,-0.0391,-0.8047,9.7266,0.999146,-0.041138,0.001038,0.000488
2026-05-01 15:17:14,-0.0391,-0.8047,9.7695,0.999146,-0.041138,0.000977,0.000488
2026-05-01 15:17:14,-0.0391,-0.8047,9.7695,0.999146,-0.041138,0.001038,0.000488
2026-05-01 15:17:14,0.0000,-0.8047,9.7266,0.999146,-0.041138,0.001038,0.000488
2026-05-01 15:17:14,-0.0391,-0.8047,9.7695,0.999146,-0.041138,0.001038,0.000488
2026-05-01 15:17:14,-0.0391,-0.7656,9.7695,0.999146,-0.041138,0.001038,0.000488
2026-05-01 15:17:14,-0.0391,-0.8047,9.7266,0.999146,-0.041138,0.001038,0.000488
2026-05-01 15:17:14,-0.0391,-0.8047,9.8086,0.999146,-0.041138,0.001038,0.000488
2026-05-01 15:17:14,0.0000,-0.8047,9.7695,0.999146,-0.041138,0.001038,0.000488
2026-05-01 15:17:14,-0.0391,-0.8047,9.7695,0.999146,-0.041138,0.001038,0.000488
2026-05-01 15:17:14,-0.0391,-0.8047,9.7695,0.999146,-0.041138,0.001038,0.000488
2026-05-01 15:17:15,0.0000,-0.8047,9.7695,0.999146,-0.041138,0.001038,0.000488
2026-05-01 15:17:15,-0.0391,-0.8047,9.7695,0.999146,-0.041138,0.001038,0.000488
2026-05-01 15:17:15,-0.0391,-0.8047,9.7695,0.999146,-0.041138,0.001038,0.000488
2026-05-01 15:17:15,-0.0391,-0.8047,9.7695,0.999146,-0.041138,0.001038,0.000488
2026-05-01 15:17:15,-0.0391,-0.8047,9.7695,0.999146,-0.041138,0.001038,0.000488
2026-05-01 15:17:15,-0.0391,-0.8047,9.7266,0.999146,-0.041138,0.001038,0.000488
2026-05-01 15:17:15,-0.0391,-0.8047,9.7266,0.999146,-0.041138,0.001038,0.000488
2026-05-01 15:17:15,-0.0391,-0.8047,9.7695,0.999146,-0.041138,0.001038,0.000488
2026-05-01 15:17:15,-0.0391,-0.8047,9.7266,0.999146,-0.041138,0.001038,0.000488
2026-05-01 15:17:15,-0.0391,-0.8047,9.7695,0.999146,-0.041138,0.001038,0.000488
2026-05-01 15:17:15,0.0000,-0.8047,9.7695,0.999146,-0.041138,0.001038,0.000488
2026-05-01 15:17:15,-0.0391,-0.8047,9.7695,0.999146,-0.041138,0.001038,0.000488
2026-05-01 15:17:15,0.0000,-0.8047,9.7266,0.999146,-0.041138,0.001038,0.000488
2026-05-01 15:17:15,0.0000,-0.8047,9.7695,0.999146,-0.041138,0.001038,0.000488
2026-05-01 15:17:15,0.0000,-0.8047,9.7695,0.999146,-0.041138,0.001038,0.000488
2026-05-01 15:17:15,0.0000,-0.8047,9.8086,0.999146,-0.041138,0.001038,0.000488
2026-05-01 15:17:15,-0.0391,-0.8047,9.7695,0.999146,-0.041138,0.001099,0.000488
2026-05-01 15:17:15,0.0000,-0.8047,9.7266,0.999146,-0.041138,0.001099,0.000488
2026-05-01 15:17:15,0.0000,-0.8047,9.7695,0.999146,-0.041138,0.001099,0.000488
2026-05-01 15:17:15,-0.0391,-0.8047,9.7695,0.999146,-0.041138,0.001099,0.000488
2026-05-01 15:17:15,-0.0391,-0.8047,9.7266,0.999146,-0.041138,0.001099,0.000488
2026-05-01 15:17:15,0.0000,-0.8047,9.7695,0.999146,-0.041138,0.001099,0.000488
2026-05-01 15:17:15,-0.0391,-0.8047,9.7266,0.999146,-0.041138,0.001099,0.000488
2026-05-01 15:17:15,0.0000,-0.8047,9.7695,0.999146,-0.041138,0.001099,0.000488
2026-05-01 15:17:15,-0.0391,-0.8047,9.7266,0.999146,-0.041138,0.001099,0.000488
2026-05-01 15:17:15,0.0000,-0.8438,9.7656,0.999146,-0.041138,0.001099,0.000488
2026-05-01 15:17:15,-0.0391,-0.8047,9.7266,0.999146,-0.041138,0.001099,0.000488
2026-05-01 15:17:15,0.0000,-0.8047,9.7695,0.999146,-0.041138,0.001099,0.000488
2026-05-01 15:17:15,-0.0391,-0.7656,9.7695,0.999146,-0.041138,0.001099,0.000488
2026-05-01 15:17:15,0.0000,-0.8047,9.7266,0.999146,-0.041138,0.001099,0.000488
2026-05-01 15:17:15,-0.0391,-0.8047,9.8086,0.999146,-0.041138,0.001099,0.000488
2026-05-01 15:17:15,0.0000,-0.8438,9.7305,0.999146,-0.041138,0.001038,0.000488
2026-05-01 15:17:15,0.0000,-0.7656,9.7695,0.999146,-0.041138,0.001038,0.000488
2026-05-01 15:17:15,-0.0391,-0.7656,9.7266,0.999146,-0.041138,0.001038,0.000488
2026-05-01 15:17:15,-0.0391,-0.8047,9.7695,0.999146,-0.041138,0.001038,0.000488
2026-05-01 15:17:15,0.0000,-0.8047,9.7266,0.999146,-0.041138,0.001038,0.000488
2026-05-01 15:17:15,0.0000,-0.8047,9.7695,0.999146,-0.041138,0.001038,0.000488
2026-05-01 15:17:15,-0.0391,-0.8047,9.7266,0.999146,-0.041138,0.001038,0.000488
2026-05-01 15:17:15,0.0000,-0.8047,9.7695,0.999146,-0.041138,0.001038,0.000488
2026-05-01 15:17:15,-0.0391,-0.8047,9.7266,0.999146,-0.041138,0.001038,0.000488
2026-05-01 15:17:15,-0.0391,-0.8047,9.7695,0.999146,-0.041138,0.001038,0.000488
2026-05-01 15:17:15,0.0000,-0.8047,9.7695,0.999146,-0.041138,0.001038,0.000488
2026-05-01 15:17:15,-0.0391,-0.8047,9.7266,0.999146,-0.041138,0.001038,0.000488
2026-05-01 15:17:15,0.0000,-0.8047,9.7266,0.999146,-0.041138,0.000977,0.000488
2026-05-01 15:17:15,-0.0391,-0.8047,9.7695,0.999146,-0.041138,0.000977,0.000488
2026-05-01 15:17:15,0.0000,-0.8047,9.7695,0.999146,-0.041138,0.000977,0.000488
2026-05-01 15:17:15,0.0000,-0.8047,9.7266,0.999146,-0.041138,0.000977,0.000488
2026-05-01 15:17:15,0.0000,-0.8047,9.7695,0.999146,-0.041138,0.000977,0.000488
2026-05-01 15:17:16,0.0000,-0.8047,9.7266,0.999146,-0.041138,0.000977,0.000488
2026-05-01 15:17:16,-0.0391,-0.8047,9.7266,0.999146,-0.041138,0.000977,0.000488
2026-05-01 15:17:16,-0.0391,-0.8047,9.7695,0.999146,-0.041138,0.000977,0.000488
2026-05-01 15:17:16,0.0000,-0.8047,9.7695,0.999146,-0.041138,0.000977,0.000488
2026-05-01 15:17:16,-0.0391,-0.8047,9.7695,0.999146,-0.041138,0.000977,0.000488
2026-05-01 15:17:16,-0.0391,-0.7656,9.7695,0.999146,-0.041138,0.000977,0.000488
2026-05-01 15:17:16,0.0000,-0.8438,9.7656,0.999146,-0.041138,0.000977,0.000488
2026-05-01 15:17:16,0.0000,-0.8047,9.7266,0.999146,-0.041138,0.000977,0.000488
2026-05-01 15:17:16,0.0000,-0.8047,9.7695,0.999146,-0.041138,0.000977,0.000488
2026-05-01 15:17:16,0.0000,-0.8438,9.7656,0.999146,-0.041138,0.000977,0.000488
2026-05-01 15:17:16,0.0000,-0.8047,9.7266,0.999146,-0.041138,0.000977,0.000488
2026-05-01 15:17:16,0.0000,-0.8047,9.7266,0.999146,-0.041138,0.000977,0.000488
2026-05-01 15:17:16,-0.0391,-0.8047,9.7266,0.999146,-0.041138,0.000977,0.000488
2026-05-01 15:17:16,0.0000,-0.8047,9.7695,0.999146,-0.041138,0.000977,0.000488
2026-05-01 15:17:16,-0.0391,-0.8047,9.7266,0.999146,-0.041138,0.000977,0.000488
2026-05-01 15:17:16,0.0000,-0.8047,9.7695,0.999146,-0.041138,0.000977,0.000488
2026-05-01 15:17:16,-0.0391,-0.8047,9.7695,0.999146,-0.041138,0.000977,0.000488
2026-05-01 15:17:16,-0.0391,-0.8047,9.7266,0.999146,-0.041138,0.000977,0.000488
2026-05-01 15:17:16,-0.0391,-0.8438,9.7305,0.999146,-0.041138,0.000916,0.000488
2026-05-01 15:17:16,0.0000,-0.8047,9.7695,0.999146,-0.041138,0.000916,0.000488
2026-05-01 15:17:16,0.0000,-0.8047,9.7266,0.999146,-0.041138,0.000916,0.000488
2026-05-01 15:17:16,0.0000,-0.8047,9.7266,0.999146,-0.041138,0.000916,0.000488
2026-05-01 15:17:16,0.0000,-0.8047,9.7695,0.999146,-0.041138,0.000916,0.000488
2026-05-01 15:17:16,0.0000,-0.8047,9.7695,0.999146,-0.041138,0.000916,0.000488
2026-05-01 15:17:16,0.0000,-0.8047,9.7695,0.999146,-0.041138,0.000916,0.000488
2026-05-01 15:17:16,0.0000,-0.8047,9.7695,0.999146,-0.041138,0.000916,0.000488
2026-05-01 15:17:16,0.0000,-0.8438,9.7305,0.999146,-0.041138,0.000916,0.000488
2026-05-01 15:17:16,-0.0391,-0.8047,9.7266,0.999146,-0.041138,0.000916,0.000488
2026-05-01 15:17:16,-0.0391,-0.8047,9.7266,0.999146,-0.041138,0.000916,0.000488
2026-05-01 15:17:16,-0.0391,-0.8047,9.7266,0.999146,-0.041138,0.000916,0.000488
2026-05-01 15:17:16,-0.0391,-0.8047,9.7695,0.999146,-0.041138,0.000916,0.000488
2026-05-01 15:17:16,-0.0391,-0.8047,9.7266,0.999146,-0.041138,0.000916,0.000488
2026-05-01 15:17:16,-0.0391,-0.8438,9.7305,0.999146,-0.041138,0.000916,0.000488
2026-05-01 15:17:16,-0.0391,-0.8047,9.7695,0.999146,-0.041199,0.000916,0.000488
2026-05-01 15:17:16,0.0000,-0.8047,9.7266,0.999146,-0.041199,0.000916,0.000488
2026-05-01 15:17:16,-0.0391,-0.8047,9.7695,0.999146,-0.041199,0.000916,0.000488
2026-05-01 15:17:16,0.0000,-0.8047,9.7266,0.999146,-0.041199,0.000977,0.000488
2026-05-01 15:17:16,-0.0391,-0.8047,9.8086,0.999146,-0.041199,0.000977,0.000488
2026-05-01 15:17:16,0.0000,-0.8047,9.7266,0.999146,-0.041199,0.000977,0.000488
2026-05-01 15:17:16,0.0000,-0.8047,9.7266,0.999146,-0.041199,0.000977,0.000488
2026-05-01 15:17:16,-0.0391,-0.8438,9.7305,0.999146,-0.041199,0.000977,0.000488
2026-05-01 15:17:16,-0.0391,-0.8047,9.7695,0.999146,-0.041199,0.000977,0.000488
2026-05-01 15:17:16,0.0000,-0.8047,9.7695,0.999146,-0.041260,0.000977,0.000488
2026-05-01 15:17:16,0.0000,-0.8438,9.6484,0.999146,-0.041260,0.000977,0.000488
2026-05-01 15:17:16,-0.0391,-0.8047,9.7695,0.999146,-0.041260,0.000977,0.000488
2026-05-01 15:17:16,0.0000,-0.8047,9.8438,0.999146,-0.041260,0.000977,0.000488
2026-05-01 15:17:16,-0.0391,-0.8047,9.6875,0.999146,-0.041260,0.000977,0.000488
2026-05-01 15:17:16,0.0000,-0.8047,9.8086,0.999146,-0.041260,0.000977,0.000488
2026-05-01 15:17:16,0.0000,-0.8047,9.8086,0.999146,-0.041260,0.000916,0.000488
2026-05-01 15:17:17,0.0000,-0.8047,9.7695,0.999146,-0.041260,0.000916,0.000488
2026-05-01 15:17:17,-0.0391,-0.8047,9.6875,0.999146,-0.041260,0.000916,0.000488
2026-05-01 15:17:17,-0.0391,-0.8438,9.7305,0.999146,-0.041260,0.000916,0.000488
2026-05-01 15:17:17,0.0000,-0.8047,9.7266,0.999146,-0.041260,0.000916,0.000488
2026-05-01 15:17:17,0.0000,-0.8047,9.7695,0.999146,-0.041321,0.000977,0.000366
2026-05-01 15:17:17,0.0000,-0.8047,9.7695,0.999146,-0.041321,0.001038,0.000366
2026-05-01 15:17:17,0.0000,-0.8047,9.7266,0.999146,-0.041321,0.000977,0.000305
2026-05-01 15:17:17,0.0000,-0.8047,9.7695,0.999146,-0.041260,0.000977,0.000305
2026-05-01 15:17:17,-0.0391,-0.8047,9.7695,0.999146,-0.041260,0.000977,0.000305
2026-05-01 15:17:17,-0.0391,-0.8047,9.7266,0.999146,-0.041260,0.000977,0.000366
2026-05-01 15:17:17,0.0000,-0.8047,9.7266,0.999146,-0.041260,0.001038,0.000366
2026-05-01 15:17:17,0.0000,-0.8047,9.7695,0.999146,-0.041260,0.001038,0.000366
2026-05-01 15:17:17,0.0000,-0.8438,9.7656,0.999146,-0.041260,0.001038,0.000366
2026-05-01 15:17:17,-0.0391,-0.8047,9.7266,0.999146,-0.041260,0.001038,0.000366
2026-05-01 15:17:17,-0.0391,-0.8047,9.7695,0.999146,-0.041199,0.000977,0.000366
2026-05-01 15:17:17,-0.0391,-0.8047,9.7266,0.999146,-0.041199,0.000977,0.000366
2026-05-01 15:17:17,-0.0391,-0.8047,9.7266,0.999146,-0.041199,0.000977,0.000366
2026-05-01 15:17:17,0.0000,-0.8047,9.7695,0.999146,-0.041138,0.000977,0.000366
2026-05-01 15:17:17,0.0000,-0.8438,9.7656,0.999146,-0.041138,0.000977,0.000366
2026-05-01 15:17:17,0.0000,-0.8047,9.7266,0.999146,-0.041138,0.000977,0.000366
2026-05-01 15:17:17,0.0000,-0.8047,9.7266,0.999146,-0.041138,0.000977,0.000366
2026-05-01 15:17:17,-0.0391,-0.8047,9.7266,0.999146,-0.041138,0.001038,0.000366
2026-05-01 15:17:17,-0.0391,-0.8047,9.7695,0.999146,-0.041077,0.000977,0.000366
2026-05-01 15:17:17,-0.0391,-0.8047,9.7266,0.999146,-0.041077,0.001038,0.000366
2026-05-01 15:17:17,-0.0391,-0.8047,9.7695,0.999146,-0.041016,0.000977,0.000427
2026-05-01 15:17:17,0.0000,-0.8047,9.7695,0.999146,-0.041016,0.000977,0.000427
2026-05-01 15:17:17,0.0000,-0.8047,9.7695,0.999146,-0.041016,0.000977,0.000427
2026-05-01 15:17:17,0.0000,-0.8438,9.7305,0.999146,-0.041016,0.000977,0.000427
2026-05-01 15:17:17,-0.0391,-0.8047,9.7695,0.999146,-0.041016,0.000977,0.000427
2026-05-01 15:17:17,-0.0391,-0.8047,9.7695,0.999146,-0.041016,0.000977,0.000366
2026-05-01 15:17:17,-0.0391,-0.8047,9.7266,0.999146,-0.040955,0.000977,0.000366
2026-05-01 15:17:17,-0.0391,-0.8047,9.7695,0.999146,-0.040955,0.000977,0.000366
2026-05-01 15:17:17,-0.0391,-0.8047,9.7266,0.999146,-0.040955,0.000916,0.000366
2026-05-01 15:17:17,-0.0391,-0.8047,9.7266,0.999146,-0.040955,0.000916,0.000366
2026-05-01 15:17:17,0.0000,-0.8047,9.7695,0.999146,-0.040955,0.000977,0.000427
2026-05-01 15:17:17,0.0000,-0.7656,9.7695,0.999146,-0.040955,0.000977,0.000427
2026-05-01 15:17:17,-0.0391,-0.8047,9.7266,0.999146,-0.040955,0.000977,0.000427
2026-05-01 15:17:17,-0.0391,-0.8047,9.7266,0.999146,-0.041016,0.000977,0.000427
2026-05-01 15:17:17,-0.0391,-0.8047,9.7695,0.999146,-0.041016,0.000977,0.000427
2026-05-01 15:17:17,-0.0391,-0.7656,9.7695,0.999146,-0.041016,0.000977,0.000427
2026-05-01 15:17:17,-0.0781,-0.7656,9.7695,0.999146,-0.041016,0.000977,0.000488
2026-05-01 15:17:17,0.0000,-0.8047,9.7695,0.999146,-0.041016,0.000977,0.000488
2026-05-01 15:17:17,0.0000,-0.8438,9.7656,0.999146,-0.041016,0.000977,0.000427
2026-05-01 15:17:17,-0.0391,-0.8047,9.7266,0.999146,-0.041016,0.000977,0.000488
2026-05-01 15:17:17,0.0000,-0.8047,9.7695,0.999146,-0.041077,0.000977,0.000488
2026-05-01 15:17:17,-0.0391,-0.7656,9.7266,0.999146,-0.041138,0.000977,0.000488
2026-05-01 15:17:17,-0.0391,-0.8047,9.7695,0.999146,-0.041138,0.000977,0.000488
2026-05-01 15:17:17,-0.0391,-0.8047,9.7695,0.999146,-0.041138,0.000977,0.000488
2026-05-01 15:17:17,-0.0391,-0.8047,9.7695,0.999146,-0.041138,0.000977,0.000488
2026-05-01 15:17:18,-0.0391,-0.8438,9.7305,0.999146,-0.041138,0.000977,0.000488
2026-05-01 15:17:18,0.0000,-0.8047,9.7695,0.999146,-0.041138,0.000977,0.000488
2026-05-01 15:17:18,-0.0391,-0.8047,9.7266,0.999146,-0.041138,0.001038,0.000488
2026-05-01 15:17:18,0.0000,-0.8047,9.7266,0.999146,-0.041138,0.001038,0.000488
2026-05-01 15:17:18,0.0000,-0.8047,9.8086,0.999146,-0.041138,0.001038,0.000488
2026-05-01 15:17:18,-0.0391,-0.8047,9.7695,0.999146,-0.041138,0.001038,0.000488
2026-05-01 15:17:18,0.0000,-0.8047,9.7695,0.999146,-0.041138,0.001038,0.000488
2026-05-01 15:17:18,-0.0391,-0.8438,9.7656,0.999146,-0.041138,0.001038,0.000488
2026-05-01 15:17:18,-0.0391,-0.8438,9.7305,0.999146,-0.041138,0.001038,0.000488
2026-05-01 15:17:18,-0.0391,-0.7656,9.7266,0.999146,-0.041138,0.001038,0.000488
2026-05-01 15:17:18,0.0000,-0.7656,9.7695,0.999146,-0.041138,0.001038,0.000488
2026-05-01 15:17:18,0.0000,-0.8047,9.7695,0.999146,-0.041138,0.001038,0.000488
2026-05-01 15:17:18,0.0000,-0.7656,9.7266,0.999146,-0.041138,0.001038,0.000488
2026-05-01 15:17:18,0.0000,-0.8047,9.8086,0.999146,-0.041138,0.001038,0.000488
2026-05-01 15:17:18,-0.0391,-0.8047,9.7695,0.999146,-0.041138,0.001038,0.000488
2026-05-01 15:17:18,-0.0391,-0.8047,9.7695,0.999146,-0.041138,0.001038,0.000488
2026-05-01 15:17:18,-0.0391,-0.8047,9.7695,0.999146,-0.041138,0.001038,0.000488
2026-05-01 15:17:18,0.0000,-0.8047,9.7266,0.999146,-0.041138,0.001038,0.000488
2026-05-01 15:17:18,-0.0391,-0.8047,9.7266,0.999146,-0.041138,0.001038,0.000488
2026-05-01 15:17:18,0.0000,-0.8047,9.7266,0.999146,-0.041138,0.001038,0.000488
2026-05-01 15:17:18,-0.0391,-0.8047,9.7266,0.999146,-0.041138,0.001038,0.000488
2026-05-01 15:17:18,-0.0391,-0.8047,9.7266,0.999146,-0.041138,0.001038,0.000488
2026-05-01 15:17:18,0.0000,-0.7656,9.7266,0.999146,-0.041138,0.001038,0.000488
2026-05-01 15:17:18,-0.0391,-0.8047,9.7266,0.999146,-0.041138,0.001038,0.000488
2026-05-01 15:17:18,-0.0391,-0.8047,9.7266,0.999146,-0.041138,0.001038,0.000488
2026-05-01 15:17:18,-0.0391,-0.8047,9.7266,0.999146,-0.041138,0.001099,0.000488
2026-05-01 15:17:18,0.0000,-0.8047,9.7695,0.999146,-0.041138,0.001099,0.000488
2026-05-01 15:17:18,0.0000,-0.8047,9.7266,0.999146,-0.041138,0.001099,0.000488
2026-05-01 15:17:18,0.0000,-0.8047,9.7266,0.999146,-0.041138,0.001099,0.000488
2026-05-01 15:17:18,-0.0391,-0.8047,9.7266,0.999146,-0.041138,0.001099,0.000488
2026-05-01 15:17:18,0.0000,-0.8047,9.7695,0.999146,-0.041138,0.001099,0.000488
2026-05-01 15:17:18,0.0000,-0.8047,9.7695,0.999146,-0.041138,0.001099,0.000488
2026-05-01 15:17:18,-0.0391,-0.8047,9.7266,0.999146,-0.041138,0.001099,0.000488
2026-05-01 15:17:18,0.0000,-0.8047,9.7266,0.999146,-0.041138,0.001099,0.000488
2026-05-01 15:17:18,0.0000,-0.8047,9.7695,0.999146,-0.041138,0.001099,0.000488
2026-05-01 15:17:18,0.0000,-0.8047,9.7266,0.999146,-0.041138,0.001099,0.000488
2026-05-01 15:17:18,-0.0391,-0.8438,9.8047,0.999146,-0.041138,0.001099,0.000488
2026-05-01 15:17:18,-0.0391,-0.8047,9.7695,0.999146,-0.041138,0.001099,0.000488
2026-05-01 15:17:18,0.0000,-0.8047,9.7695,0.999146,-0.041138,0.001099,0.000488
2026-05-01 15:17:18,0.0000,-0.8047,9.7266,0.999146,-0.041138,0.001099,0.000488
2026-05-01 15:17:18,-0.0391,-0.8047,9.7266,0.999146,-0.041138,0.001099,0.000488
2026-05-01 15:17:18,-0.0391,-0.8047,9.7266,0.999146,-0.041138,0.001099,0.000488
2026-05-01 15:17:18,-0.0391,-0.7656,9.7266,0.999146,-0.041138,0.001099,0.000488
2026-05-01 15:17:18,-0.0391,-0.8047,9.7695,0.999146,-0.041138,0.001099,0.000488
2026-05-01 15:17:18,-0.0391,-0.8047,9.7266,0.999146,-0.041138,0.001099,0.000488
2026-05-01 15:17:18,0.0000,-0.8047,9.7266,0.999146,-0.041138,0.001099,0.000488
2026-05-01 15:17:18,0.0000,-0.8047,9.7266,0.999146,-0.041138,0.001099,0.000488
2026-05-01 15:17:18,-0.0391,-0.8438,9.7305,0.999146,-0.041138,0.001099,0.000488
2026-05-01 15:17:18,-0.0391,-0.8047,9.7695,0.999146,-0.041138,0.001099,0.000488
2026-05-01 15:17:18,-0.0391,-0.8047,9.7695,0.999146,-0.041138,0.001099,0.000488
2026-05-01 15:17:18,-0.0391,-0.7656,9.7266,0.999146,-0.041138,0.001099,0.000488
2026-05-01 15:17:19,-0.0391,-0.8047,9.7266,0.999146,-0.041138,0.001099,0.000488
2026-05-01 15:17:19,-0.0391,-0.8047,9.7695,0.999146,-0.041138,0.001099,0.000488
2026-05-01 15:17:19,-0.0391,-0.8047,9.7266,0.999146,-0.041138,0.001099,0.000488
2026-05-01 15:17:19,-0.0391,-0.8047,9.7695,0.999146,-0.041138,0.001099,0.000488
2026-05-01 15:17:19,-0.0391,-0.8047,9.7266,0.999146,-0.041138,0.001099,0.000488
2026-05-01 15:17:19,0.0000,-0.8438,9.7656,0.999146,-0.041138,0.001099,0.000488
2026-05-01 15:17:19,0.0000,-0.8047,9.7695,0.999146,-0.041138,0.001099,0.000488
2026-05-01 15:17:19,-0.0391,-0.8047,9.7266,0.999146,-0.041138,0.001099,0.000488
2026-05-01 15:17:19,-0.0391,-0.8047,9.7695,0.999146,-0.041138,0.001099,0.000488
2026-05-01 15:17:19,-0.0391,-0.8047,9.7266,0.999146,-0.041138,0.001099,0.000488
2026-05-01 15:17:19,-0.0391,-0.8047,9.7266,0.999146,-0.041138,0.001099,0.000488
2026-05-01 15:17:19,0.0000,-0.8047,9.7695,0.999146,-0.041138,0.001099,0.000488
2026-05-01 15:17:19,-0.0391,-0.8047,9.7266,0.999146,-0.041138,0.001099,0.000488
2026-05-01 15:17:19,0.0000,-0.8047,9.7695,0.999146,-0.041138,0.001099,0.000488
2026-05-01 15:17:19,0.0000,-0.8047,9.7695,0.999146,-0.041138,0.001099,0.000488
2026-05-01 15:17:19,0.0000,-0.8047,9.7695,0.999146,-0.041138,0.001099,0.000488
2026-05-01 15:17:19,-0.0391,-0.8047,9.7266,0.999146,-0.041138,0.001099,0.000488
2026-05-01 15:17:19,0.0000,-0.8047,9.7695,0.999146,-0.041138,0.001099,0.000488
2026-05-01 15:17:19,-0.0391,-0.8047,9.7695,0.999146,-0.041138,0.001099,0.000488
2026-05-01 15:17:19,-0.0391,-0.8047,9.7266,0.999146,-0.041138,0.001099,0.000488
2026-05-01 15:17:19,-0.0391,-0.8438,9.7305,0.999146,-0.041138,0.001099,0.000488
2026-05-01 15:17:19,0.0000,-0.8047,9.7266,0.999146,-0.041138,0.001099,0.000488
2026-05-01 15:17:19,0.0000,-0.8047,9.7266,0.999146,-0.041138,0.001099,0.000488
2026-05-01 15:17:19,-0.0391,-0.8047,9.7695,0.999146,-0.041138,0.001099,0.000488
2026-05-01 15:17:19,-0.0391,-0.8047,9.7695,0.999146,-0.041138,0.001160,0.000488
2026-05-01 15:17:19,-0.0391,-0.8047,9.7266,0.999146,-0.041138,0.001160,0.000488
2026-05-01 15:17:19,0.0000,-0.8047,9.7695,0.999146,-0.041138,0.001160,0.000488
2026-05-01 15:17:19,0.0000,-0.8438,9.7305,0.999146,-0.041138,0.001160,0.000488
2026-05-01 15:17:19,0.0000,-0.8047,9.7266,0.999146,-0.041138,0.001160,0.000488
2026-05-01 15:17:19,-0.0391,-0.8047,9.7266,0.999146,-0.041138,0.001160,0.000488
2026-05-01 15:17:19,0.0000,-0.8438,9.7305,0.999146,-0.041138,0.001160,0.000488
2026-05-01 15:17:19,0.0000,-0.7656,9.7695,0.999146,-0.041138,0.001160,0.000488
2026-05-01 15:17:19,-0.0391,-0.8047,9.7695,0.999146,-0.041138,0.001160,0.000488
2026-05-01 15:17:19,-0.0391,-0.8047,9.7695,0.999146,-0.041138,0.001160,0.000488
2026-05-01 15:17:19,-0.0391,-0.8047,9.7695,0.999146,-0.041138,0.001160,0.000488
2026-05-01 15:17:19,-0.0391,-0.8047,9.7695,0.999146,-0.041138,0.001160,0.000488
2026-05-01 15:17:19,-0.0391,-0.8047,9.7266,0.999146,-0.041138,0.001160,0.000488
2026-05-01 15:17:19,-0.0391,-0.8438,9.7656,0.999146,-0.041138,0.001160,0.000488
2026-05-01 15:17:19,-0.0391,-0.8047,9.7266,0.999146,-0.041138,0.001160,0.000488
2026-05-01 15:17:19,-0.0391,-0.8047,9.7266,0.999146,-0.041138,0.001160,0.000488
2026-05-01 15:17:19,0.0000,-0.8047,9.7695,0.999146,-0.041138,0.001160,0.000488
2026-05-01 15:17:19,-0.0391,-0.8047,9.7266,0.999146,-0.041138,0.001160,0.000488
2026-05-01 15:17:19,-0.0391,-0.7656,9.7695,0.999146,-0.041138,0.001160,0.000488
2026-05-01 15:17:19,-0.0391,-0.8047,9.7695,0.999146,-0.041138,0.001160,0.000488
2026-05-01 15:17:19,0.0000,-0.8047,9.7266,0.999146,-0.041138,0.001160,0.000488
2026-05-01 15:17:19,-0.0391,-0.8438,9.7305,0.999146,-0.041138,0.001160,0.000488
2026-05-01 15:17:19,0.0000,-0.8047,9.7266,0.999146,-0.041138,0.001160,0.000488
2026-05-01 15:17:19,-0.0391,-0.8047,9.7266,0.999146,-0.041138,0.001160,0.000488
2026-05-01 15:17:20,0.0000,-0.8047,9.7266,0.999146,-0.041138,0.001221,0.000488
2026-05-01 15:17:20,0.0000,-0.8047,9.7266,0.999146,-0.041138,0.001221,0.000488
2026-05-01 15:17:20,0.0000,-0.8047,9.7695,0.999146,-0.041138,0.001221,0.000488
2026-05-01 15:17:20,0.0000,-0.8047,9.7695,0.999146,-0.041138,0.001221,0.000488
2026-05-01 15:17:20,-0.0391,-0.8047,9.7266,0.999146,-0.041138,0.001221,0.000488
2026-05-01 15:17:20,0.0000,-0.8047,9.7695,0.999146,-0.041138,0.001221,0.000488
2026-05-01 15:17:20,-0.0391,-0.8047,9.7266,0.999146,-0.041199,0.001221,0.000488
2026-05-01 15:17:20,-0.0391,-0.8047,9.7266,0.999146,-0.041199,0.001221,0.000488
2026-05-01 15:17:20,-0.0391,-0.8047,9.7266,0.999146,-0.041199,0.001221,0.000488
2026-05-01 15:17:20,-0.0391,-0.8047,9.7695,0.999146,-0.041199,0.001221,0.000488
2026-05-01 15:17:20,-0.0391,-0.8047,9.7695,0.999146,-0.041199,0.001221,0.000488
2026-05-01 15:17:20,-0.0391,-0.8047,9.7266,0.999146,-0.041199,0.001221,0.000488
2026-05-01 15:17:20,-0.0391,-0.8438,9.7656,0.999146,-0.041199,0.001221,0.000488
2026-05-01 15:17:20,0.0000,-0.8047,9.7266,0.999146,-0.041199,0.001221,0.000488
2026-05-01 15:17:20,-0.0391,-0.8047,9.7695,0.999146,-0.041199,0.001221,0.000488
2026-05-01 15:17:20,0.0000,-0.8047,9.7266,0.999146,-0.041199,0.001221,0.000488
2026-05-01 15:17:20,0.0000,-0.8438,9.7656,0.999146,-0.041199,0.001221,0.000488
2026-05-01 15:17:20,0.0000,-0.8047,9.7695,0.999146,-0.041199,0.001221,0.000488
2026-05-01 15:17:20,0.0000,-0.8438,9.7656,0.999146,-0.041199,0.001221,0.000488
2026-05-01 15:17:20,-0.0391,-0.8047,9.7266,0.999146,-0.041199,0.001221,0.000488
2026-05-01 15:17:20,0.0000,-0.7656,9.7266,0.999146,-0.041199,0.001221,0.000488
2026-05-01 15:17:20,0.0000,-0.8438,9.8047,0.999146,-0.041199,0.001221,0.000488
2026-05-01 15:17:20,0.0000,-0.8047,9.7266,0.999146,-0.041199,0.001221,0.000488
2026-05-01 15:17:20,0.0000,-0.8047,9.7266,0.999146,-0.041199,0.001221,0.000488
2026-05-01 15:17:20,-0.0391,-0.7656,9.7266,0.999146,-0.041199,0.001221,0.000488
2026-05-01 15:17:20,0.0000,-0.8047,9.7695,0.999146,-0.041199,0.001221,0.000488
2026-05-01 15:17:20,0.0000,-0.8047,9.7266,0.999146,-0.041199,0.001221,0.000488
2026-05-01 15:17:20,0.0000,-0.8047,9.7266,0.999146,-0.041199,0.001221,0.000488
2026-05-01 15:17:20,0.0000,-0.8047,9.7695,0.999146,-0.041199,0.001221,0.000488
2026-05-01 15:17:20,-0.0391,-0.8047,9.7266,0.999146,-0.041199,0.001221,0.000488
2026-05-01 15:17:20,-0.0391,-0.8047,9.7266,0.999146,-0.041199,0.001221,0.000488
2026-05-01 15:17:20,0.0000,-0.8047,9.7266,0.999146,-0.041199,0.001221,0.000488
2026-05-01 15:17:20,0.0000,-0.8047,9.7695,0.999146,-0.041199,0.001221,0.000488
2026-05-01 15:17:20,0.0000,-0.7656,9.7266,0.999146,-0.041199,0.001221,0.000488
2026-05-01 15:17:20,-0.0391,-0.8047,9.7266,0.999146,-0.041199,0.001221,0.000488
2026-05-01 15:17:20,-0.0391,-0.8047,9.7695,0.999146,-0.041199,0.001160,0.000488
2026-05-01 15:17:20,-0.0391,-0.8047,9.7695,0.999146,-0.041199,0.001160,0.000488
2026-05-01 15:17:20,0.0000,-0.8047,9.7266,0.999146,-0.041199,0.001160,0.000488
2026-05-01 15:17:20,-0.0391,-0.8047,9.7266,0.999146,-0.041199,0.001160,0.000488
2026-05-01 15:17:20,-0.0391,-0.8047,9.7266,0.999146,-0.041199,0.001160,0.000488
2026-05-01 15:17:20,0.0000,-0.8047,9.7695,0.999146,-0.041199,0.001160,0.000488
2026-05-01 15:17:20,-0.0391,-0.8047,9.7266,0.999146,-0.041199,0.001160,0.000488
2026-05-01 15:17:20,0.0000,-0.7656,9.7695,0.999146,-0.041199,0.001160,0.000488
2026-05-01 15:17:20,-0.0391,-0.8047,9.7266,0.999146,-0.041199,0.001160,0.000488
2026-05-01 15:17:20,-0.0391,-0.8047,9.7266,0.999146,-0.041199,0.001160,0.000488
2026-05-01 15:17:20,0.0000,-0.8047,9.7695,0.999146,-0.041199,0.001160,0.000488
2026-05-01 15:17:20,0.0000,-0.8047,9.6875,0.999146,-0.041199,0.001160,0.000488
2026-05-01 15:17:20,0.0000,-0.8047,9.7266,0.999146,-0.041199,0.001160,0.000488
2026-05-01 15:17:20,-0.0391,-0.8047,9.7266,0.999146,-0.041199,0.001160,0.000488
2026-05-01 15:17:20,0.0000,-0.8047,9.7266,0.999146,-0.041199,0.001160,0.000488
2026-05-01 15:17:20,-0.0391,-0.8047,9.7266,0.999146,-0.041199,0.001160,0.000488
2026-05-01 15:17:21,0.0000,-0.8047,9.7695,0.999146,-0.041199,0.001160,0.000488
2026-05-01 15:17:21,0.0000,-0.8047,9.8086,0.999146,-0.041199,0.001160,0.000488
2026-05-01 15:17:21,0.0000,-0.8047,9.7266,0.999146,-0.041199,0.001160,0.000488
2026-05-01 15:17:21,-0.0391,-0.8047,9.7266,0.999146,-0.041199,0.001160,0.000488
2026-05-01 15:17:21,0.0000,-0.8047,9.7695,0.999146,-0.041199,0.001160,0.000488
2026-05-01 15:17:21,0.0000,-0.8047,9.7695,0.999146,-0.041199,0.001160,0.000488
2026-05-01 15:17:21,-0.0391,-0.8047,9.7695,0.999146,-0.041199,0.001160,0.000488
2026-05-01 15:17:21,-0.0391,-0.8047,9.7266,0.999146,-0.041199,0.001160,0.000488
2026-05-01 15:17:21,-0.0391,-0.8047,9.7695,0.999146,-0.041199,0.001160,0.000488
2026-05-01 15:17:21,-0.0391,-0.8047,9.7266,0.999146,-0.041199,0.001160,0.000488
2026-05-01 15:17:21,-0.0391,-0.8047,9.6875,0.999146,-0.041199,0.001160,0.000488
2026-05-01 15:17:21,0.0000,-0.8047,9.7266,0.999146,-0.041199,0.001160,0.000488
2026-05-01 15:17:21,0.0000,-0.7656,9.7266,0.999146,-0.041199,0.001160,0.000488
2026-05-01 15:17:21,-0.0391,-0.8047,9.7266,0.999146,-0.041199,0.001160,0.000488
2026-05-01 15:17:21,0.0000,-0.8047,9.7266,0.999146,-0.041199,0.001160,0.000488
2026-05-01 15:17:21,0.0000,-0.8047,9.7695,0.999146,-0.041199,0.001160,0.000488
2026-05-01 15:17:21,-0.0391,-0.8047,9.7266,0.999146,-0.041199,0.001160,0.000488
2026-05-01 15:17:21,0.0000,-0.8047,9.7266,0.999146,-0.041199,0.001160,0.000488
2026-05-01 15:17:21,-0.0391,-0.8438,9.7656,0.999146,-0.041199,0.001160,0.000488
2026-05-01 15:17:21,0.0000,-0.8047,9.7266,0.999146,-0.041199,0.001160,0.000488
2026-05-01 15:17:21,0.0000,-0.8047,9.7266,0.999146,-0.041199,0.001160,0.000488
2026-05-01 15:17:21,0.0000,-0.8047,9.7266,0.999146,-0.041199,0.001160,0.000488
2026-05-01 15:17:21,-0.0391,-0.8047,9.7695,0.999146,-0.041199,0.001160,0.000488
2026-05-01 15:17:21,-0.0391,-0.8047,9.7695,0.999146,-0.041199,0.001160,0.000488
2026-05-01 15:17:21,0.0000,-0.8047,9.7266,0.999146,-0.041199,0.001160,0.000488
2026-05-01 15:17:21,-0.0391,-0.8047,9.7266,0.999146,-0.041199,0.001160,0.000488
2026-05-01 15:17:21,-0.0391,-0.8047,9.8086,0.999146,-0.041199,0.001160,0.000488
2026-05-01 15:17:21,-0.0391,-0.8047,9.7695,0.999146,-0.041199,0.001160,0.000488
2026-05-01 15:17:21,0.0000,-0.8047,9.7695,0.999146,-0.041199,0.001160,0.000488
2026-05-01 15:17:21,-0.0391,-0.7656,9.7695,0.999146,-0.041199,0.001160,0.000488
2026-05-01 15:17:21,-0.0391,-0.8047,9.7266,0.999146,-0.041199,0.001160,0.000488
2026-05-01 15:17:21,0.0000,-0.8047,9.7266,0.999146,-0.041199,0.001160,0.000488
2026-05-01 15:17:21,0.0000,-0.8047,9.7695,0.999146,-0.041199,0.001160,0.000488
2026-05-01 15:17:21,-0.0391,-0.8047,9.7266,0.999146,-0.041199,0.001160,0.000488
2026-05-01 15:17:21,0.0000,-0.8047,9.7266,0.999146,-0.041199,0.001160,0.000488
2026-05-01 15:17:21,-0.0391,-0.8047,9.7266,0.999146,-0.041199,0.001160,0.000488
2026-05-01 15:17:21,-0.0391,-0.8047,9.7266,0.999146,-0.041199,0.001160,0.000488
2026-05-01 15:17:21,0.0000,-0.8047,9.7695,0.999146,-0.041199,0.001160,0.000488
2026-05-01 15:17:21,-0.0391,-0.8047,9.7266,0.999146,-0.041199,0.001160,0.000488
2026-05-01 15:17:21,0.0000,-0.8047,9.7266,0.999146,-0.041199,0.001160,0.000488
2026-05-01 15:17:21,-0.0391,-0.8047,9.7695,0.999146,-0.041199,0.001160,0.000488
2026-05-01 15:17:21,-0.0391,-0.8047,9.7695,0.999146,-0.041199,0.001160,0.000488
2026-05-01 15:17:21,0.0000,-0.8047,9.7266,0.999146,-0.041199,0.001099,0.000488
2026-05-01 15:17:21,-0.0391,-0.8438,9.7305,0.999146,-0.041199,0.001099,0.000488
2026-05-01 15:17:21,-0.0391,-0.8047,9.7266,0.999146,-0.041199,0.001099,0.000488
2026-05-01 15:17:21,-0.0391,-0.8047,9.7695,0.999146,-0.041199,0.001099,0.000488
2026-05-01 15:17:21,0.0000,-0.8047,9.7266,0.999146,-0.041199,0.001099,0.000488
2026-05-01 15:17:22,-0.0391,-0.8047,9.7695,0.999146,-0.041199,0.001160,0.000488
2026-05-01 15:17:22,-0.0391,-0.8047,9.7695,0.999146,-0.041199,0.001160,0.000488
2026-05-01 15:17:22,-0.0391,-0.8047,9.7695,0.999146,-0.041199,0.001160,0.000488
2026-05-01 15:17:22,0.0000,-0.8047,9.7266,0.999146,-0.041199,0.001160,0.000488
2026-05-01 15:17:22,-0.0391,-0.8047,9.7266,0.999146,-0.041199,0.001160,0.000488
2026-05-01 15:17:22,-0.0391,-0.8047,9.7695,0.999146,-0.041199,0.001160,0.000488
2026-05-01 15:17:22,0.0000,-0.8047,9.7695,0.999146,-0.041199,0.001160,0.000488
2026-05-01 15:17:22,0.0000,-0.8047,9.7695,0.999146,-0.041199,0.001160,0.000488
2026-05-01 15:17:22,0.0000,-0.8438,9.7305,0.999146,-0.041199,0.001160,0.000488
2026-05-01 15:17:22,0.0000,-0.8047,9.7266,0.999146,-0.041199,0.001160,0.000488
2026-05-01 15:17:22,0.0000,-0.8047,9.7695,0.999146,-0.041199,0.001160,0.000488
2026-05-01 15:17:22,0.0000,-0.8047,9.7695,0.999146,-0.041199,0.001160,0.000488
2026-05-01 15:17:22,0.0000,-0.8438,9.7305,0.999146,-0.041199,0.001160,0.000488
2026-05-01 15:17:22,0.0000,-0.8047,9.7695,0.999146,-0.041199,0.001160,0.000488
2026-05-01 15:17:22,0.0000,-0.8047,9.8086,0.999146,-0.041199,0.001160,0.000488
2026-05-01 15:17:22,0.0000,-0.8047,9.8086,0.999146,-0.041199,0.001160,0.000488
2026-05-01 15:17:22,-0.0391,-0.8047,9.8086,0.999146,-0.041199,0.001160,0.000488
2026-05-01 15:17:22,-0.0391,-0.8047,9.7695,0.999146,-0.041199,0.001160,0.000488
2026-05-01 15:17:22,-0.0391,-0.8047,9.8086,0.999146,-0.041199,0.001099,0.000488
2026-05-01 15:17:22,0.0000,-0.8047,9.7695,0.999146,-0.041199,0.001099,0.000488
2026-05-01 15:17:22,-0.0391,-0.8047,9.7266,0.999146,-0.041199,0.001099,0.000488
2026-05-01 15:17:22,0.0000,-0.8047,9.7266,0.999146,-0.041199,0.001099,0.000488
2026-05-01 15:17:22,0.0000,-0.8438,9.7656,0.999146,-0.041199,0.001099,0.000488
2026-05-01 15:17:22,0.0000,-0.8438,9.6914,0.999146,-0.041199,0.001099,0.000488
2026-05-01 15:17:22,0.0000,-0.8047,9.7266,0.999146,-0.041199,0.001099,0.000488
2026-05-01 15:17:22,-0.0391,-0.8047,9.7695,0.999146,-0.041199,0.001099,0.000488
2026-05-01 15:17:22,0.0000,-0.8047,9.7695,0.999146,-0.041199,0.001099,0.000488
2026-05-01 15:17:22,0.0000,-0.8047,9.7695,0.999146,-0.041199,0.001099,0.000488
2026-05-01 15:17:22,0.0000,-0.8438,9.7656,0.999146,-0.041260,0.001038,0.000488
2026-05-01 15:17:22,0.0000,-0.8047,9.6875,0.999146,-0.041260,0.001038,0.000488
2026-05-01 15:17:22,-0.0391,-0.8047,9.6875,0.999146,-0.041260,0.001038,0.000488
2026-05-01 15:17:22,-0.0391,-0.8047,9.7695,0.999146,-0.041260,0.001038,0.000488
2026-05-01 15:17:22,-0.0391,-0.8047,9.8086,0.999146,-0.041260,0.001038,0.000488
2026-05-01 15:17:22,-0.0391,-0.8438,9.6914,0.999146,-0.041260,0.001038,0.000488
2026-05-01 15:17:22,0.0000,-0.8047,9.7695,0.999146,-0.041260,0.001038,0.000488
2026-05-01 15:17:22,0.0000,-0.8047,9.7695,0.999146,-0.041260,0.001038,0.000488
2026-05-01 15:17:22,0.0000,-0.8438,9.7305,0.999146,-0.041260,0.001038,0.000488
2026-05-01 15:17:22,-0.0391,-0.8047,9.7266,0.999146,-0.041260,0.001038,0.000488
2026-05-01 15:17:22,-0.0391,-0.8047,9.7266,0.999146,-0.041321,0.001038,0.000488
2026-05-01 15:17:22,0.0000,-0.8438,9.7656,0.999146,-0.041321,0.001038,0.000488
2026-05-01 15:17:22,0.0000,-0.8047,9.7266,0.999146,-0.041321,0.000977,0.000488
2026-05-01 15:17:22,0.0000,-0.8047,9.7695,0.999146,-0.041321,0.000977,0.000488
2026-05-01 15:17:22,-0.0391,-0.8438,9.7656,0.999146,-0.041321,0.000977,0.000488
2026-05-01 15:17:22,0.0000,-0.8047,9.7266,0.999146,-0.041321,0.000977,0.000488
2026-05-01 15:17:22,-0.0391,-0.8047,9.7695,0.999146,-0.041321,0.000977,0.000488
2026-05-01 15:17:22,0.0000,-0.8047,9.7695,0.999146,-0.041321,0.000977,0.000488
2026-05-01 15:17:22,0.0000,-0.8047,9.7695,0.999146,-0.041321,0.000977,0.000488
2026-05-01 15:17:22,-0.0391,-0.8047,9.7266,0.999146,-0.041321,0.000977,0.000488
2026-05-01 15:17:22,0.0000,-0.8047,9.7695,0.999146,-0.041321,0.000977,0.000488
2026-05-01 15:17:23,-0.0391,-0.8047,9.7266,0.999146,-0.041321,0.000977,0.000488
2026-05-01 15:17:23,-0.0391,-0.8047,9.7266,0.999146,-0.041321,0.000977,0.000488
2026-05-01 15:17:23,0.0000,-0.8047,9.7266,0.999146,-0.041321,0.000977,0.000488
2026-05-01 15:17:23,0.0000,-0.8047,9.7266,0.999146,-0.041382,0.000977,0.000488
2026-05-01 15:17:23,-0.0391,-0.8047,9.7695,0.999146,-0.041382,0.000977,0.000488
2026-05-01 15:17:23,0.0000,-0.8047,9.7695,0.999146,-0.041382,0.000977,0.000488
2026-05-01 15:17:23,-0.0391,-0.8047,9.7695,0.999146,-0.041382,0.000977,0.000488
2026-05-01 15:17:23,0.0000,-0.8047,9.7695,0.999146,-0.041382,0.000977,0.000488
2026-05-01 15:17:23,0.0000,-0.8438,9.7656,0.999146,-0.041382,0.000977,0.000488
2026-05-01 15:17:23,0.0000,-0.8047,9.7266,0.999146,-0.041382,0.000977,0.000488
2026-05-01 15:17:23,0.0000,-0.8047,9.7266,0.999146,-0.041382,0.000916,0.000488
2026-05-01 15:17:23,0.0000,-0.8047,9.7695,0.999146,-0.041382,0.000916,0.000488
2026-05-01 15:17:23,0.0000,-0.7656,9.7695,0.999146,-0.041382,0.000916,0.000488
2026-05-01 15:17:23,-0.0391,-0.8047,9.7266,0.999146,-0.041382,0.000916,0.000488
2026-05-01 15:17:23,0.0000,-0.8047,9.8086,0.999146,-0.041382,0.000916,0.000488
2026-05-01 15:17:23,-0.0391,-0.7656,9.7695,0.999146,-0.041382,0.000916,0.000488
2026-05-01 15:17:23,-0.0391,-0.8047,9.7266,0.999146,-0.041382,0.000916,0.000488
2026-05-01 15:17:23,0.0000,-0.8047,9.7266,0.999146,-0.041382,0.000916,0.000488
2026-05-01 15:17:23,0.0000,-0.8047,9.7266,0.999146,-0.041382,0.000916,0.000488
2026-05-01 15:17:23,0.0000,-0.8047,9.7695,0.999146,-0.041382,0.000916,0.000488
2026-05-01 15:17:23,-0.0391,-0.8047,9.7266,0.999146,-0.041382,0.000916,0.000488
2026-05-01 15:17:23,-0.0391,-0.8047,9.7266,0.999146,-0.041382,0.000916,0.000488
2026-05-01 15:17:23,-0.0391,-0.8438,9.7656,0.999146,-0.041382,0.000916,0.000488
2026-05-01 15:17:23,-0.0391,-0.7656,9.7695,0.999146,-0.041382,0.000916,0.000488
2026-05-01 15:17:23,-0.0391,-0.8438,9.7305,0.999146,-0.041382,0.000916,0.000488
2026-05-01 15:17:23,-0.0391,-0.8438,9.7305,0.999146,-0.041382,0.000916,0.000488
2026-05-01 15:17:23,0.0000,-0.8047,9.7266,0.999146,-0.041321,0.000916,0.000488
2026-05-01 15:17:23,-0.0391,-0.8047,9.7695,0.999146,-0.041321,0.000916,0.000488
2026-05-01 15:17:23,0.0000,-0.8438,9.7305,0.999146,-0.041321,0.000916,0.000488
2026-05-01 15:17:23,-0.0391,-0.8047,9.7266,0.999146,-0.041321,0.000916,0.000427
2026-05-01 15:17:23,0.0000,-0.8047,9.7266,0.999146,-0.041321,0.000916,0.000427
2026-05-01 15:17:23,0.0000,-0.8047,9.7695,0.999146,-0.041321,0.000916,0.000427
2026-05-01 15:17:23,0.0000,-0.8047,9.7695,0.999146,-0.041321,0.000916,0.000427
2026-05-01 15:17:23,0.0391,-0.8047,9.7695,0.999146,-0.041321,0.000916,0.000427
2026-05-01 15:17:23,-0.0391,-0.8047,9.7695,0.999146,-0.041321,0.000916,0.000427
2026-05-01 15:17:23,-0.0391,-0.8047,9.7266,0.999146,-0.041321,0.000916,0.000427
2026-05-01 15:17:23,0.0000,-0.8047,9.7695,0.999146,-0.041321,0.000916,0.000427
2026-05-01 15:17:23,0.0000,-0.8047,9.7695,0.999146,-0.041321,0.000916,0.000427
2026-05-01 15:17:23,-0.0391,-0.8047,9.7266,0.999146,-0.041321,0.000916,0.000427
2026-05-01 15:17:23,0.0000,-0.8047,9.7695,0.999146,-0.041321,0.000916,0.000427
2026-05-01 15:17:23,0.0000,-0.8047,9.7266,0.999146,-0.041321,0.000854,0.000427
2026-05-01 15:17:23,0.0000,-0.8047,9.7695,0.999146,-0.041321,0.000854,0.000427
2026-05-01 15:17:23,-0.0391,-0.8047,9.7695,0.999146,-0.041321,0.000854,0.000427
2026-05-01 15:17:23,0.0000,-0.8047,9.7266,0.999146,-0.041321,0.000854,0.000427
2026-05-01 15:17:23,0.0000,-0.8047,9.7695,0.999146,-0.041321,0.000854,0.000427
2026-05-01 15:17:23,0.0000,-0.8047,9.7266,0.999146,-0.041321,0.000854,0.000427
2026-05-01 15:17:23,0.0000,-0.8047,9.7695,0.999146,-0.041321,0.000854,0.000427
2026-05-01 15:17:23,0.0000,-0.8047,9.7266,0.999146,-0.041321,0.000854,0.000427
2026-05-01 15:17:23,-0.0391,-0.8047,9.7695,0.999146,-0.041321,0.000854,0.000427
2026-05-01 15:17:24,0.0000,-0.8047,9.7695,0.999146,-0.041321,0.000854,0.000427
2026-05-01 15:17:24,0.0000,-0.8047,9.7695,0.999146,-0.041321,0.000854,0.000427
2026-05-01 15:17:24,0.0000,-0.8047,9.7695,0.999146,-0.041321,0.000854,0.000427
2026-05-01 15:17:24,-0.0391,-0.8047,9.7695,0.999146,-0.041260,0.000854,0.000427
2026-05-01 15:17:24,-0.0391,-0.8047,9.7695,0.999146,-0.041260,0.000854,0.000427
2026-05-01 15:17:24,0.0000,-0.8047,9.7266,0.999146,-0.041260,0.000854,0.000427
2026-05-01 15:17:24,0.0000,-0.8047,9.7695,0.999146,-0.041260,0.000854,0.000427
2026-05-01 15:17:24,-0.0391,-0.8047,9.7266,0.999146,-0.041260,0.000854,0.000427
2026-05-01 15:17:24,-0.0391,-0.8047,9.7266,0.999146,-0.041260,0.000854,0.000427
2026-05-01 15:17:24,0.0000,-0.8047,9.7695,0.999146,-0.041260,0.000854,0.000427
2026-05-01 15:17:24,0.0000,-0.8047,9.7695,0.999146,-0.041260,0.000793,0.000427
2026-05-01 15:17:24,0.0000,-0.8438,9.7305,0.999146,-0.041260,0.000793,0.000427
2026-05-01 15:17:24,-0.0391,-0.8047,9.7695,0.999146,-0.041260,0.000793,0.000427
2026-05-01 15:17:24,0.0000,-0.8047,9.7695,0.999146,-0.041260,0.000793,0.000427
2026-05-01 15:17:24,0.0000,-0.8047,9.7695,0.999146,-0.041260,0.000793,0.000427
2026-05-01 15:17:24,0.0000,-0.8047,9.7695,0.999146,-0.041260,0.000793,0.000427
2026-05-01 15:17:24,0.0000,-0.8047,9.7266,0.999146,-0.041260,0.000793,0.000427
2026-05-01 15:17:24,0.0000,-0.8047,9.7266,0.999146,-0.041260,0.000793,0.000427
2026-05-01 15:17:24,0.0000,-0.8438,9.7656,0.999146,-0.041260,0.000793,0.000427
2026-05-01 15:17:24,-0.0391,-0.8047,9.7266,0.999146,-0.041260,0.000793,0.000427
2026-05-01 15:17:24,0.0000,-0.8047,9.7695,0.999146,-0.041260,0.000793,0.000427
2026-05-01 15:17:24,0.0000,-0.8047,9.7266,0.999146,-0.041260,0.000793,0.000427
2026-05-01 15:17:24,0.0000,-0.8047,9.7695,0.999146,-0.041321,0.000793,0.000427
2026-05-01 15:17:24,0.0000,-0.8047,9.7695,0.999146,-0.041321,0.000793,0.000427
2026-05-01 15:17:24,0.0000,-0.7656,9.7695,0.999146,-0.041321,0.000732,0.000427
2026-05-01 15:17:24,0.0000,-0.8047,9.7266,0.999146,-0.041321,0.000732,0.000427
2026-05-01 15:17:24,-0.0391,-0.8047,9.7695,0.999146,-0.041321,0.000732,0.000427
2026-05-01 15:17:24,0.0000,-0.8047,9.7266,0.999146,-0.041321,0.000732,0.000427
2026-05-01 15:17:24,0.0000,-0.8047,9.7695,0.999146,-0.041321,0.000732,0.000427
2026-05-01 15:17:24,0.0000,-0.8047,9.7695,0.999146,-0.041321,0.000732,0.000427
2026-05-01 15:17:24,-0.0391,-0.8047,9.7266,0.999146,-0.041321,0.000732,0.000427
2026-05-01 15:17:24,0.0000,-0.8047,9.6875,0.999146,-0.041321,0.000732,0.000427
2026-05-01 15:17:24,0.0000,-0.8047,9.7695,0.999146,-0.041321,0.000732,0.000427
2026-05-01 15:17:24,0.0000,-0.8047,9.7695,0.999146,-0.041321,0.000732,0.000427
2026-05-01 15:17:24,0.0000,-0.8047,9.7695,0.999146,-0.041321,0.000732,0.000427
2026-05-01 15:17:24,0.0000,-0.8047,9.7695,0.999146,-0.041321,0.000732,0.000427
2026-05-01 15:17:24,0.0000,-0.8047,9.7695,0.999146,-0.041321,0.000732,0.000427
2026-05-01 15:17:24,0.0000,-0.8438,9.7656,0.999146,-0.041321,0.000732,0.000427
2026-05-01 15:17:24,0.0000,-0.8047,9.7695,0.999146,-0.041321,0.000732,0.000427
2026-05-01 15:17:24,-0.0391,-0.8047,9.7266,0.999146,-0.041321,0.000732,0.000427
2026-05-01 15:17:24,0.0000,-0.8047,9.7695,0.999146,-0.041321,0.000732,0.000427
2026-05-01 15:17:24,-0.0391,-0.8047,9.7266,0.999146,-0.041321,0.000671,0.000427
2026-05-01 15:17:24,0.0000,-0.8047,9.7695,0.999146,-0.041321,0.000671,0.000427
2026-05-01 15:17:24,-0.0391,-0.8438,9.7305,0.999146,-0.041321,0.000671,0.000427
2026-05-01 15:17:24,-0.0391,-0.8047,9.7695,0.999146,-0.041260,0.000671,0.000427
2026-05-01 15:17:24,0.0000,-0.8438,9.7656,0.999146,-0.041260,0.000671,0.000427
2026-05-01 15:17:24,0.0000,-0.8047,9.7266,0.999146,-0.041260,0.000671,0.000427
2026-05-01 15:17:24,0.0000,-0.8047,9.7695,0.999146,-0.041260,0.000671,0.000427
2026-05-01 15:17:24,0.0000,-0.8438,9.7305,0.999146,-0.041260,0.000671,0.000427
2026-05-01 15:17:24,0.0000,-0.8047,9.7695,0.999146,-0.041321,0.000671,0.000427
2026-05-01 15:17:25,0.0000,-0.8047,9.7695,0.999146,-0.041321,0.000671,0.000427
2026-05-01 15:17:25,0.0000,-0.8047,9.7266,0.999146,-0.041321,0.000671,0.000427
2026-05-01 15:17:25,-0.0391,-0.7656,9.7695,0.999146,-0.041321,0.000671,0.000427
2026-05-01 15:17:25,0.0000,-0.8047,9.7266,0.999146,-0.041321,0.000671,0.000427
2026-05-01 15:17:25,-0.0391,-0.8047,9.7695,0.999146,-0.041321,0.000671,0.000427
2026-05-01 15:17:25,0.0000,-0.8047,9.7266,0.999146,-0.041321,0.000671,0.000427
2026-05-01 15:17:25,0.0000,-0.8047,9.7695,0.999146,-0.041321,0.000671,0.000427
2026-05-01 15:17:25,0.0000,-0.8438,9.7305,0.999146,-0.041321,0.000671,0.000427
2026-05-01 15:17:25,0.0000,-0.8047,9.7695,0.999146,-0.041321,0.000671,0.000427
2026-05-01 15:17:25,0.0000,-0.8047,9.7266,0.999146,-0.041321,0.000671,0.000427
2026-05-01 15:17:25,0.0000,-0.8047,9.7266,0.999146,-0.041321,0.000549,0.000488
2026-05-01 15:17:25,0.0000,-0.8047,9.7266,0.999146,-0.041260,0.000549,0.000488
2026-05-01 15:17:25,0.0000,-0.8438,9.7305,0.999146,-0.041260,0.000549,0.000488
2026-05-01 15:17:25,-0.0391,-0.8047,9.7266,0.999146,-0.041260,0.000549,0.000488
2026-05-01 15:17:25,0.0000,-0.8438,9.7656,0.999146,-0.041321,0.000549,0.000427
2026-05-01 15:17:25,0.0000,-0.8047,9.7695,0.999146,-0.041382,0.000549,0.000488
2026-05-01 15:17:25,0.0000,-0.8047,9.7266,0.999146,-0.041382,0.000549,0.000488
2026-05-01 15:17:25,-0.0391,-0.8047,9.7266,0.999146,-0.041382,0.000549,0.000488
2026-05-01 15:17:25,0.0000,-0.8047,9.7695,0.999146,-0.041321,0.000488,0.000488
2026-05-01 15:17:25,0.0000,-0.8047,9.7266,0.999146,-0.041321,0.000549,0.000488
2026-05-01 15:17:25,-0.0391,-0.8438,9.7656,0.999146,-0.041382,0.000488,0.000549
2026-05-01 15:17:25,0.0000,-0.8047,9.7266,0.999146,-0.041382,0.000488,0.000549
2026-05-01 15:17:25,0.0000,-0.8438,9.7305,0.999146,-0.041382,0.000488,0.000488
2026-05-01 15:17:25,0.0000,-0.8047,9.7266,0.999146,-0.041443,0.000488,0.000488
2026-05-01 15:17:25,0.0000,-0.8438,9.7656,0.999146,-0.041443,0.000488,0.000488
2026-05-01 15:17:25,-0.0391,-0.8047,9.7266,0.999146,-0.041504,0.000488,0.000488
2026-05-01 15:17:25,0.0000,-0.8047,9.7266,0.999146,-0.041443,0.000488,0.000488
2026-05-01 15:17:25,-0.0391,-0.8047,9.7695,0.999146,-0.041443,0.000488,0.000488
2026-05-01 15:17:25,-0.0391,-0.8047,9.7266,0.999146,-0.041504,0.000488,0.000549
2026-05-01 15:17:25,0.0000,-0.8047,9.7695,0.999146,-0.041504,0.000549,0.000549
2026-05-01 15:17:25,0.0000,-0.8047,9.7695,0.999146,-0.041504,0.000549,0.000488
2026-05-01 15:17:25,0.0000,-0.8047,9.7266,0.999146,-0.041504,0.000549,0.000488
2026-05-01 15:17:25,-0.0391,-0.8047,9.7695,0.999146,-0.041504,0.000549,0.000488
2026-05-01 15:17:25,0.0000,-0.8047,9.7695,0.999146,-0.041504,0.000549,0.000549
2026-05-01 15:17:25,0.0000,-0.8047,9.7695,0.999146,-0.041443,0.000549,0.000549
2026-05-01 15:17:25,0.0000,-0.8047,9.7695,0.999146,-0.041443,0.000549,0.000549
2026-05-01 15:17:25,0.0000,-0.8047,9.7266,0.999146,-0.041443,0.000549,0.000549
2026-05-01 15:17:25,-0.0391,-0.8047,9.7266,0.999146,-0.041443,0.000549,0.000488
2026-05-01 15:17:25,0.0000,-0.8047,9.7695,0.999146,-0.041504,0.000610,0.000488
2026-05-01 15:17:25,0.0000,-0.8047,9.7266,0.999146,-0.041504,0.000610,0.000488
2026-05-01 15:17:25,0.0000,-0.8047,9.7695,0.999146,-0.041443,0.000610,0.000610
2026-05-01 15:17:25,0.0000,-0.8438,9.8047,0.999146,-0.041504,0.000610,0.000610
2026-05-01 15:17:25,-0.0391,-0.8047,9.7695,0.999146,-0.041443,0.000610,0.000610
2026-05-01 15:17:25,0.0000,-0.8047,9.7266,0.999146,-0.041443,0.000610,0.000610
2026-05-01 15:17:25,-0.0391,-0.8047,9.8086,0.999146,-0.041382,0.000610,0.000610
2026-05-01 15:17:25,0.0000,-0.8047,9.7695,0.999146,-0.041382,0.000610,0.000610
2026-05-01 15:17:25,0.0000,-0.8047,9.7695,0.999146,-0.041321,0.000549,0.000610
2026-05-01 15:17:25,0.0000,-0.8047,9.7695,0.999146,-0.041321,0.000549,0.000671
2026-05-01 15:17:25,0.0000,-0.8047,9.8086,0.999146,-0.041321,0.000549,0.000671
2026-05-01 15:17:25,-0.0391,-0.8047,9.7266,0.999146,-0.041321,0.000549,0.000671
2026-05-01 15:17:26,0.0000,-0.8047,9.7695,0.999146,-0.041321,0.000549,0.000610
2026-05-01 15:17:26,0.0000,-0.8438,9.7656,0.999146,-0.041321,0.000549,0.000671
2026-05-01 15:17:26,0.0000,-0.8438,9.7305,0.999146,-0.041321,0.000549,0.000671
2026-05-01 15:17:26,0.0000,-0.8438,9.7656,0.999146,-0.041321,0.000549,0.000671
2026-05-01 15:17:26,-0.0391,-0.8047,9.7695,0.999146,-0.041321,0.000549,0.000671
2026-05-01 15:17:26,-0.0391,-0.8047,9.7266,0.999146,-0.041321,0.000549,0.000671
2026-05-01 15:17:26,0.0000,-0.8047,9.7695,0.999146,-0.041321,0.000549,0.000671
2026-05-01 15:17:26,0.0000,-0.8047,9.7695,0.999146,-0.041321,0.000549,0.000671
2026-05-01 15:17:26,-0.0391,-0.8047,9.7266,0.999146,-0.041321,0.000549,0.000671
2026-05-01 15:17:26,0.0000,-0.8047,9.7695,0.999146,-0.041321,0.000549,0.000671
2026-05-01 15:17:26,0.0000,-0.8047,9.7695,0.999146,-0.041321,0.000549,0.000671
2026-05-01 15:17:26,-0.0391,-0.8047,9.7266,0.999146,-0.041321,0.000549,0.000671
2026-05-01 15:17:26,0.0000,-0.8047,9.7266,0.999146,-0.041321,0.000549,0.000671
2026-05-01 15:17:26,0.0000,-0.7656,9.7695,0.999146,-0.041321,0.000549,0.000671
2026-05-01 15:17:26,0.0000,-0.8438,9.7305,0.999146,-0.041321,0.000488,0.000671
2026-05-01 15:17:26,-0.0391,-0.8047,9.7695,0.999146,-0.041321,0.000488,0.000671
2026-05-01 15:17:26,0.0000,-0.8047,9.7695,0.999146,-0.041321,0.000488,0.000671
2026-05-01 15:17:26,-0.0391,-0.8047,9.7266,0.999146,-0.041321,0.000488,0.000671
2026-05-01 15:17:26,0.0000,-0.8438,9.7305,0.999146,-0.041321,0.000488,0.000671
2026-05-01 15:17:26,0.0000,-0.8047,9.7695,0.999146,-0.041321,0.000488,0.000671
2026-05-01 15:17:26,0.0000,-0.8438,9.7656,0.999146,-0.041382,0.000488,0.000671
2026-05-01 15:17:26,-0.0391,-0.8047,9.7266,0.999146,-0.041382,0.000488,0.000671
2026-05-01 15:17:26,-0.0391,-0.8438,9.7305,0.999146,-0.041382,0.000488,0.000671
2026-05-01 15:17:26,0.0000,-0.8438,9.7656,0.999146,-0.041382,0.000488,0.000671
2026-05-01 15:17:26,0.0000,-0.8438,9.7656,0.999146,-0.041382,0.000488,0.000671
2026-05-01 15:17:26,0.0000,-0.8047,9.7695,0.999146,-0.041382,0.000488,0.000671
2026-05-01 15:17:26,0.0000,-0.8438,9.7656,0.999146,-0.041382,0.000488,0.000671
2026-05-01 15:17:26,-0.0391,-0.8047,9.7695,0.999146,-0.041382,0.000488,0.000671
2026-05-01 15:17:26,0.0000,-0.8047,9.7695,0.999146,-0.041382,0.000488,0.000671
2026-05-01 15:17:26,0.0000,-0.8047,9.8086,0.999146,-0.041382,0.000488,0.000671
2026-05-01 15:17:26,0.0000,-0.8047,9.7695,0.999146,-0.041382,0.000488,0.000671
2026-05-01 15:17:26,-0.0391,-0.8047,9.7266,0.999146,-0.041382,0.000488,0.000671
2026-05-01 15:17:26,0.0000,-0.8438,9.7656,0.999146,-0.041382,0.000488,0.000671
2026-05-01 15:17:26,-0.0391,-0.8047,9.7695,0.999146,-0.041382,0.000488,0.000671
2026-05-01 15:17:26,-0.0391,-0.8047,9.6875,0.999146,-0.041382,0.000488,0.000671
2026-05-01 15:17:26,0.0000,-0.8438,9.7305,0.999146,-0.041382,0.000488,0.000671
2026-05-01 15:17:26,0.0000,-0.8047,9.7695,0.999146,-0.041382,0.000488,0.000671
2026-05-01 15:17:26,0.0000,-0.8047,9.7266,0.999146,-0.041382,0.000488,0.000671
2026-05-01 15:17:26,0.0000,-0.8047,9.7266,0.999146,-0.041382,0.000488,0.000671
2026-05-01 15:17:26,0.0000,-0.8047,9.8086,0.999146,-0.041443,0.000488,0.000671
2026-05-01 15:17:26,0.0000,-0.8047,9.7695,0.999146,-0.041443,0.000488,0.000671
2026-05-01 15:17:26,-0.0391,-0.8438,9.7305,0.999146,-0.041443,0.000488,0.000671
2026-05-01 15:17:26,0.0000,-0.8047,9.7695,0.999146,-0.041443,0.000488,0.000671
2026-05-01 15:17:26,-0.0391,-0.8047,9.7266,0.999146,-0.041443,0.000488,0.000671
2026-05-01 15:17:26,-0.0391,-0.8047,9.7695,0.999146,-0.041443,0.000488,0.000671
2026-05-01 15:17:26,0.0000,-0.8438,9.7656,0.999146,-0.041443,0.000488,0.000671
2026-05-01 15:17:26,0.0000,-0.8047,9.7695,0.999146,-0.041443,0.000488,0.000671
2026-05-01 15:17:26,0.0000,-0.8047,9.7695,0.999146,-0.041443,0.000488,0.000671
2026-05-01 15:17:27,0.0000,-0.8438,9.7656,0.999146,-0.041443,0.000488,0.000671
2026-05-01 15:17:27,-0.0391,-0.8047,9.8086,0.999146,-0.041443,0.000488,0.000671
2026-05-01 15:17:27,-0.0391,-0.8047,9.7266,0.999146,-0.041443,0.000427,0.000671
2026-05-01 15:17:27,0.0000,-0.7656,9.7695,0.999146,-0.041443,0.000427,0.000671
2026-05-01 15:17:27,-0.0391,-0.8047,9.7266,0.999146,-0.041443,0.000427,0.000671
2026-05-01 15:17:27,0.0000,-0.8047,9.8086,0.999146,-0.041443,0.000488,0.000671
2026-05-01 15:17:27,-0.0391,-0.6914,9.6523,0.999146,-0.041504,0.000488,0.000427
2026-05-01 15:17:27,-1.0352,0.5742,9.8438,0.999146,-0.041504,0.000488,0.000732
2026-05-01 15:17:27,-0.2695,-0.8047,9.7695,0.999146,-0.041504,0.000488,0.002319
2026-05-01 15:17:27,0.4961,-1.0352,9.7656,0.999146,-0.041504,0.000427,0.002686
2026-05-01 15:17:27,0.3828,-0.8438,9.7305,0.999146,-0.041443,0.000366,0.005432
2026-05-01 15:17:27,0.1523,-0.8828,9.7656,0.999146,-0.041443,0.000366,0.007080
2026-05-01 15:17:27,-0.3047,-0.7266,10.1523,0.999023,-0.041565,-0.005920,0.013611
2026-05-01 15:17:27,0.3047,-1.1875,9.8438,0.998962,-0.041443,-0.012390,0.015015
2026-05-01 15:17:27,0.3828,-1.0742,9.8828,0.998535,-0.041199,-0.030151,0.017578
2026-05-01 15:17:27,0.4609,-1.1094,9.8438,0.998047,-0.041016,-0.042725,0.018311
2026-05-01 15:17:27,1.2656,-0.8438,9.4609,0.997498,-0.040710,-0.054688,0.018555
2026-05-01 15:17:27,1.2656,-0.8047,9.4219,0.997253,-0.040649,-0.058899,0.018555
2026-05-01 15:17:27,1.2656,-0.9180,9.5391,0.996033,-0.040344,-0.076965,0.018311
2026-05-01 15:17:27,1.4570,-0.8828,9.5430,0.995117,-0.040161,-0.088318,0.018188
2026-05-01 15:17:27,1.8789,-0.7266,9.5039,0.994141,-0.039917,-0.098877,0.018127
2026-05-01 15:17:27,2.0313,-0.7656,9.4648,0.993103,-0.039734,-0.108765,0.018250
2026-05-01 15:17:27,3.1016,-0.7656,9.1602,0.986633,-0.038391,-0.157166,0.018860
2026-05-01 15:17:27,3.5234,-0.6914,9.0391,0.985779,-0.038208,-0.162537,0.018982
2026-05-01 15:17:27,3.4492,-0.7266,9.0820,0.983582,-0.037720,-0.175354,0.019226
2026-05-01 15:17:27,3.5234,-0.8047,9.0391,0.982361,-0.037476,-0.182068,0.019348
2026-05-01 15:17:27,3.5625,-0.7266,9.0391,0.981262,-0.037292,-0.187988,0.019409
2026-05-01 15:17:27,3.6016,-0.8438,9.0781,0.980164,-0.037170,-0.193604,0.019409
2026-05-01 15:17:27,3.6758,-0.8047,8.9609,0.979675,-0.037048,-0.196106,0.019348
2026-05-01 15:17:27,3.7930,-0.7656,8.9219,0.978027,-0.036804,-0.204224,0.019165
2026-05-01 15:17:27,4.0625,-0.8828,8.8164,0.976501,-0.036682,-0.211426,0.018860
2026-05-01 15:17:27,4.1758,-0.6523,8.8125,0.975342,-0.036499,-0.216736,0.018555
2026-05-01 15:17:27,4.5977,-0.7656,8.5820,0.967346,-0.035522,-0.250427,0.017456
2026-05-01 15:17:27,5.0938,-0.8438,8.3125,0.966064,-0.035339,-0.255188,0.017395
2026-05-01 15:17:27,5.0938,-0.7656,8.3164,0.965027,-0.035217,-0.259277,0.017334
2026-05-01 15:17:27,5.0547,-0.7266,8.3164,0.964172,-0.035095,-0.262451,0.017334
2026-05-01 15:17:27,5.1328,-0.6914,8.2734,0.963440,-0.035034,-0.265137,0.017334
2026-05-01 15:17:27,5.0195,-0.6523,8.3516,0.962769,-0.034973,-0.267578,0.017212
2026-05-01 15:17:27,5.1328,-0.5352,8.3125,0.962158,-0.034912,-0.269775,0.017090
2026-05-01 15:17:27,5.1719,-0.6133,8.2344,0.961609,-0.034851,-0.271606,0.017029
2026-05-01 15:17:27,5.0938,-0.7266,8.3125,0.961121,-0.034851,-0.273438,0.016846
2026-05-01 15:17:27,5.0938,-0.8047,8.3164,0.960510,-0.034851,-0.275513,0.016785
2026-05-01 15:17:27,5.4414,-0.7656,8.0820,0.957214,-0.034363,-0.286865,0.017273
2026-05-01 15:17:27,5.6680,-0.6914,7.9688,0.956970,-0.034302,-0.287720,0.017273
2026-05-01 15:17:27,5.5156,-0.7656,8.0430,0.956909,-0.034241,-0.287781,0.017273
2026-05-01 15:17:28,5.4766,-0.6133,8.0820,0.957031,-0.034180,-0.287537,0.017273
2026-05-01 15:17:28,5.3633,-0.6523,8.1211,0.957092,-0.034119,-0.287231,0.017273
2026-05-01 15:17:28,5.2852,-0.7266,8.1602,0.957092,-0.034058,-0.287170,0.017334
2026-05-01 15:17:28,5.3633,-0.6914,8.1992,0.957092,-0.033936,-0.287231,0.017395
2026-05-01 15:17:28,5.4023,-0.6914,8.1172,0.957092,-0.033875,-0.287231,0.017517
2026-05-01 15:17:28,5.4414,-0.7266,8.0781,0.957214,-0.033813,-0.286926,0.017639
2026-05-01 15:17:28,5.4023,-0.6133,8.1211,0.957336,-0.033752,-0.286499,0.017822
2026-05-01 15:17:28,5.2500,-0.7266,8.1953,0.958862,-0.033569,-0.281189,0.019165
2026-05-01 15:17:28,5.2852,-0.7656,8.1992,0.959106,-0.033508,-0.280273,0.019287
2026-05-01 15:17:28,5.2109,-0.8047,8.1992,0.959839,-0.033569,-0.277954,0.019531
2026-05-01 15:17:28,5.1719,-0.7656,8.2383,0.960022,-0.033569,-0.277100,0.019531
2026-05-01 15:17:28,5.2109,-0.7266,8.2773,0.960266,-0.033630,-0.276367,0.019531
2026-05-01 15:17:28,5.2109,-0.7266,8.2383,0.960510,-0.033630,-0.275574,0.019592
2026-05-01 15:17:28,5.1719,-0.6914,8.2383,0.960754,-0.033691,-0.274658,0.019531
2026-05-01 15:17:28,5.2109,-0.6523,8.2383,0.961060,-0.033691,-0.273499,0.019592
2026-05-01 15:17:28,5.3633,-0.5352,8.1602,0.961548,-0.033691,-0.271790,0.019592
2026-05-01 15:17:28,5.3242,-0.5742,8.1953,0.962646,-0.033813,-0.268005,0.019714
2026-05-01 15:17:28,4.5977,-0.8047,8.5820,0.967224,-0.034485,-0.250916,0.019836
2026-05-01 15:17:28,4.5977,-0.7656,8.6602,0.969421,-0.034607,-0.242065,0.020386
2026-05-01 15:17:28,4.5586,-0.7266,8.5820,0.970520,-0.034729,-0.237732,0.020508
2026-05-01 15:17:28,4.2891,-0.7266,8.7383,0.970642,-0.034790,-0.237061,0.020508
2026-05-01 15:17:28,4.2539,-0.7266,8.7734,0.972168,-0.034851,-0.230713,0.020813
2026-05-01 15:17:28,4.4453,-0.7266,8.6563,0.972595,-0.034851,-0.228882,0.020996
2026-05-01 15:17:28,4.1758,-0.7266,8.8125,0.973999,-0.034973,-0.222839,0.021484
2026-05-01 15:17:28,4.0234,-0.8438,8.8867,0.974915,-0.035095,-0.218628,0.021790
2026-05-01 15:17:28,4.1367,-0.7656,8.8125,0.975891,-0.035156,-0.214233,0.022278
2026-05-01 15:17:28,4.1367,-0.8047,8.8125,0.976318,-0.035156,-0.212402,0.022461
2026-05-01 15:17:28,3.5234,-0.7266,9.0430,0.981934,-0.036011,-0.184326,0.022766
2026-05-01 15:17:28,3.2188,-0.7656,9.1602,0.982727,-0.036194,-0.180176,0.022522
2026-05-01 15:17:28,3.2188,-0.8438,9.3086,0.983032,-0.036255,-0.178467,0.022461
2026-05-01 15:17:28,3.1797,-0.6523,9.1211,0.984070,-0.036438,-0.172668,0.022217
2026-05-01 15:17:28,3.1797,-0.8828,9.3477,0.984680,-0.036499,-0.169128,0.022095
2026-05-01 15:17:28,2.9883,-0.8438,9.2695,0.985229,-0.036560,-0.165771,0.021912
2026-05-01 15:17:28,2.9492,-0.8438,9.3047,0.985779,-0.036621,-0.162659,0.021790
2026-05-01 15:17:28,3.1016,-0.6914,9.2656,0.986206,-0.036621,-0.159912,0.021667
2026-05-01 15:17:28,2.9492,-0.8047,9.1992,0.986633,-0.036743,-0.157349,0.021606
2026-05-01 15:17:28,3.1016,-0.6914,9.1953,0.987061,-0.036926,-0.154480,0.021484
2026-05-01 15:17:28,2.9102,-0.8438,9.3438,0.990784,-0.037231,-0.128357,0.021545
2026-05-01 15:17:28,2.6797,-0.6133,9.2305,0.991333,-0.037231,-0.124207,0.021606
2026-05-01 15:17:28,2.2227,-0.7266,9.5039,0.992798,-0.037720,-0.111694,0.021545
2026-05-01 15:17:28,1.6094,-0.5742,9.6484,0.993652,-0.038147,-0.103516,0.021484
2026-05-01 15:17:28,1.6836,-0.6914,9.7656,0.993958,-0.038330,-0.100586,0.021484
2026-05-01 15:17:28,1.4922,-0.7656,9.7305,0.994385,-0.038513,-0.096313,0.021545
2026-05-01 15:17:28,1.4922,-0.9180,9.7266,0.995056,-0.038635,-0.088989,0.021790
2026-05-01 15:17:28,1.4180,-0.8047,9.7695,0.995666,-0.038696,-0.081848,0.022156
