Timestamp,ax,ay,az,qr,qi,qj,qk
2026-04-22 14:33:17,-2.6445,6.0156,6.8906,0.925964,0.330994,0.171143,0.061157
2026-04-22 14:33:17,-2.6797,6.0156,6.8945,0.926025,0.330872,0.171143,0.061157
2026-04-22 14:33:17,-2.6445,6.0508,6.9297,0.926025,0.330627,0.171570,0.060913
2026-04-22 14:33:17,-2.6797,6.0508,6.9336,0.926025,0.330627,0.171570,0.060913
2026-04-22 14:33:17,-2.6445,6.0508,6.9297,0.926025,0.330627,0.171570,0.060913
2026-04-22 14:33:17,-2.6445,6.0508,6.8906,0.926025,0.330566,0.171570,0.060913
2026-04-22 14:33:17,-2.6797,6.0508,6.9336,0.926086,0.330566,0.171570,0.060913
2026-04-22 14:33:17,-2.6797,6.0508,6.9336,0.926086,0.330566,0.171570,0.060913
2026-04-22 14:33:17,-2.6445,6.0508,6.8906,0.926086,0.330505,0.171631,0.060913
2026-04-22 14:33:17,-2.6797,6.0156,6.8945,0.926086,0.330505,0.171631,0.060913
2026-04-22 14:33:18,-2.6445,6.0508,6.8906,0.926086,0.330505,0.171692,0.060852
2026-04-22 14:33:18,-2.6797,6.0508,6.8945,0.926086,0.330505,0.171692,0.060852
2026-04-22 14:33:18,-2.6797,6.0508,6.8945,0.926086,0.330505,0.171692,0.060852
2026-04-22 14:33:18,-2.6445,6.0508,6.8906,0.926086,0.330444,0.171692,0.060852
2026-04-22 14:33:18,-2.6445,6.0508,6.9297,0.926086,0.330444,0.171692,0.060852
2026-04-22 14:33:18,-2.6445,6.0156,6.8906,0.926086,0.330444,0.171692,0.060852
2026-04-22 14:33:18,-2.6797,6.0508,6.8945,0.926086,0.330444,0.171692,0.060852
2026-04-22 14:33:18,-2.6445,6.0508,6.8906,0.926086,0.330444,0.171692,0.060852
2026-04-22 14:33:18,-2.6797,6.0508,6.8945,0.926086,0.330444,0.171692,0.060852
2026-04-22 14:33:18,-2.6445,6.0508,6.8906,0.926086,0.330444,0.171692,0.060852
2026-04-22 14:33:18,-2.6055,6.0508,6.9336,0.926086,0.330444,0.171692,0.060852
2026-04-22 14:33:18,-2.6797,6.0156,6.8945,0.926086,0.330444,0.171692,0.060852
2026-04-22 14:33:18,-2.6445,6.0898,6.8945,0.926086,0.330444,0.171692,0.060852
2026-04-22 14:33:18,-2.6797,6.0508,6.8945,0.926086,0.330444,0.171692,0.060852
2026-04-22 14:33:18,-2.6797,6.0508,6.8945,0.926086,0.330444,0.171692,0.060852
2026-04-22 14:33:18,-2.6797,6.0156,6.8945,0.926086,0.330444,0.171692,0.060852
2026-04-22 14:33:18,-2.6445,6.0508,6.9297,0.926086,0.330444,0.171692,0.060852
2026-04-22 14:33:18,-2.6797,6.0156,6.8945,0.926086,0.330444,0.171692,0.060852
2026-04-22 14:33:18,-2.6797,6.0508,6.8945,0.926086,0.330444,0.171692,0.060852
2026-04-22 14:33:18,-2.6445,6.0508,6.9297,0.926086,0.330383,0.171692,0.060852
2026-04-22 14:33:18,-2.6797,6.0508,6.9336,0.926086,0.330383,0.171753,0.060852
2026-04-22 14:33:18,-2.6797,6.0156,6.8945,0.926086,0.330383,0.171753,0.060852
2026-04-22 14:33:18,-2.6445,6.0508,6.8906,0.926086,0.330383,0.171753,0.060852
2026-04-22 14:33:18,-2.6797,6.0508,6.8945,0.926086,0.330383,0.171753,0.060852
2026-04-22 14:33:18,-2.6797,6.0508,6.8945,0.926086,0.330383,0.171753,0.060852
2026-04-22 14:33:18,-2.6445,6.0508,6.9297,0.926086,0.330383,0.171753,0.060852
2026-04-22 14:33:18,-2.6797,6.0508,6.9336,0.926086,0.330383,0.171753,0.060852
2026-04-22 14:33:18,-2.6797,6.0508,6.8945,0.926086,0.330322,0.171753,0.060791
2026-04-22 14:33:18,-2.6445,6.0508,6.9297,0.926086,0.330322,0.171753,0.060791
2026-04-22 14:33:18,-2.6445,6.0508,6.8906,0.926086,0.330322,0.171753,0.060791
2026-04-22 14:33:18,-2.6445,6.0156,6.8906,0.926086,0.330322,0.171753,0.060791
2026-04-22 14:33:18,-2.6445,6.0508,6.8906,0.926086,0.330322,0.171753,0.060791
2026-04-22 14:33:18,-2.6797,6.0156,6.8945,0.926086,0.330322,0.171814,0.060791
2026-04-22 14:33:18,-2.6445,6.0508,6.8906,0.926086,0.330322,0.171814,0.060791
2026-04-22 14:33:18,-2.6445,6.0508,6.9297,0.926086,0.330322,0.171814,0.060791
2026-04-22 14:33:18,-2.6445,6.0508,6.8906,0.926086,0.330322,0.171814,0.060791
2026-04-22 14:33:18,-2.6445,6.0508,6.8906,0.926086,0.330322,0.171814,0.060791
2026-04-22 14:33:18,-2.6445,6.0508,6.9297,0.926086,0.330322,0.171814,0.060791
2026-04-22 14:33:18,-2.6445,6.0508,6.8906,0.926086,0.330322,0.171814,0.060791
2026-04-22 14:33:18,-2.6797,6.0156,6.8945,0.926086,0.330322,0.171814,0.060791
2026-04-22 14:33:18,-2.6797,6.0508,6.9336,0.926147,0.330322,0.171814,0.060791
2026-04-22 14:33:19,-2.6445,6.0898,6.9336,0.926147,0.330322,0.171814,0.060791
2026-04-22 14:33:19,-2.6445,6.0508,6.9297,0.926147,0.330322,0.171814,0.060791
2026-04-22 14:33:19,-2.6797,6.0508,6.8945,0.926147,0.330322,0.171814,0.060791
2026-04-22 14:33:19,-2.6445,6.0508,6.9297,0.926147,0.330322,0.171814,0.060791
2026-04-22 14:33:19,-2.6445,6.0508,6.8906,0.926147,0.330322,0.171814,0.060791
2026-04-22 14:33:19,-2.6797,6.0508,6.9336,0.926147,0.330322,0.171814,0.060791
2026-04-22 14:33:19,-2.6797,6.0508,6.8945,0.926147,0.330322,0.171814,0.060791
2026-04-22 14:33:19,-2.6445,6.0156,6.9297,0.926147,0.330322,0.171814,0.060791
2026-04-22 14:33:19,-2.6797,6.0156,6.8945,0.926147,0.330322,0.171814,0.060791
2026-04-22 14:33:19,-2.6445,6.0156,6.9297,0.926147,0.330261,0.171753,0.060791
2026-04-22 14:33:19,-2.6445,6.0156,6.9297,0.926147,0.330261,0.171753,0.060791
2026-04-22 14:33:19,-2.6797,6.0156,6.9336,0.926147,0.330261,0.171753,0.060791
2026-04-22 14:33:19,-2.6797,6.0508,6.8945,0.926147,0.330261,0.171753,0.060791
2026-04-22 14:33:19,-2.6797,6.0508,6.9336,0.926147,0.330261,0.171753,0.060791
2026-04-22 14:33:19,-2.6797,6.0508,6.8945,0.926147,0.330261,0.171753,0.060791
2026-04-22 14:33:19,-2.6445,6.0508,6.9297,0.926147,0.330261,0.171753,0.060791
2026-04-22 14:33:19,-2.6445,6.0508,6.8906,0.926147,0.330261,0.171753,0.060791
2026-04-22 14:33:19,-2.6797,6.0508,6.8945,0.926147,0.330261,0.171753,0.060791
2026-04-22 14:33:19,-2.6445,6.0508,6.9297,0.926147,0.330261,0.171753,0.060791
2026-04-22 14:33:19,-2.6797,6.0508,6.8945,0.926147,0.330261,0.171814,0.060791
2026-04-22 14:33:19,-2.6797,6.0508,6.8945,0.926147,0.330261,0.171814,0.060791
2026-04-22 14:33:19,-2.6797,6.0508,6.9336,0.926147,0.330261,0.171814,0.060791
2026-04-22 14:33:19,-2.6797,6.0156,6.8945,0.926147,0.330261,0.171814,0.060791
2026-04-22 14:33:19,-2.6445,6.0508,6.9297,0.926147,0.330261,0.171814,0.060791
2026-04-22 14:33:19,-2.6445,6.0156,6.9297,0.926147,0.330261,0.171814,0.060791
2026-04-22 14:33:19,-2.6797,6.0508,6.8945,0.926147,0.330261,0.171814,0.060791
2026-04-22 14:33:19,-2.6797,6.0508,6.8945,0.926147,0.330261,0.171814,0.060791
2026-04-22 14:33:19,-2.6797,6.0508,6.8945,0.926147,0.330261,0.171814,0.060791
2026-04-22 14:33:19,-2.6797,6.0508,6.8945,0.926147,0.330261,0.171814,0.060791
2026-04-22 14:33:19,-2.6797,6.0508,6.8945,0.926147,0.330200,0.171814,0.060791
2026-04-22 14:33:19,-2.6797,6.0508,6.8945,0.926147,0.330200,0.171814,0.060791
2026-04-22 14:33:19,-2.6797,6.0508,6.9336,0.926147,0.330200,0.171814,0.060791
2026-04-22 14:33:19,-2.6797,6.0508,6.9336,0.926147,0.330200,0.171814,0.060791
2026-04-22 14:33:19,-2.6445,6.0156,6.9297,0.926147,0.330200,0.171814,0.060791
2026-04-22 14:33:19,-2.6445,6.0508,6.8906,0.926147,0.330200,0.171814,0.060791
2026-04-22 14:33:19,-2.6445,6.0508,6.8906,0.926147,0.330200,0.171814,0.060791
2026-04-22 14:33:19,-2.6797,6.0156,6.8945,0.926147,0.330200,0.171814,0.060791
2026-04-22 14:33:19,-2.6797,6.0508,6.8945,0.926147,0.330200,0.171814,0.060791
2026-04-22 14:33:19,-2.6797,6.0156,6.8945,0.926147,0.330200,0.171875,0.060791
2026-04-22 14:33:19,-2.6797,6.0156,6.9336,0.926147,0.330200,0.171875,0.060730
2026-04-22 14:33:19,-2.6445,6.0508,6.8906,0.926147,0.330200,0.171875,0.060730
2026-04-22 14:33:20,-2.6797,6.0508,6.9336,0.926147,0.330200,0.171875,0.060730
2026-04-22 14:33:20,-2.6797,6.0508,6.9336,0.926147,0.330200,0.171875,0.060730
2026-04-22 14:33:20,-2.6797,6.0156,6.9336,0.926147,0.330139,0.171875,0.060730
2026-04-22 14:33:20,-2.6445,6.0508,6.8906,0.926147,0.330139,0.171875,0.060730
2026-04-22 14:33:20,-2.6445,6.0508,6.8906,0.926147,0.330139,0.171875,0.060730
2026-04-22 14:33:20,-2.6797,6.0156,6.8945,0.926147,0.330139,0.171875,0.060730
2026-04-22 14:33:20,-2.6445,6.0508,6.9297,0.926147,0.330139,0.171875,0.060730
2026-04-22 14:33:20,-2.6797,6.0156,6.9336,0.926147,0.330139,0.171875,0.060730
2026-04-22 14:33:20,-2.6797,6.0508,6.8945,0.926147,0.330139,0.171875,0.060730
2026-04-22 14:33:20,-2.6445,6.0156,6.9297,0.926147,0.330139,0.171875,0.060730
2026-04-22 14:33:20,-2.6797,6.0508,6.9336,0.926147,0.330078,0.171875,0.060730
2026-04-22 14:33:20,-2.6797,6.0156,6.8945,0.926147,0.330078,0.171875,0.060730
2026-04-22 14:33:20,-2.6445,6.0508,6.9297,0.926147,0.330078,0.171875,0.060730
2026-04-22 14:33:20,-4.0234,5.7070,6.7070,0.926147,0.330078,0.171875,0.060730
2026-04-22 14:33:20,-2.3750,6.5117,7.1641,0.926331,0.329956,0.171387,0.060608
2026-04-22 14:33:20,-2.5273,6.2422,7.0469,0.926636,0.329590,0.170410,0.060486
2026-04-22 14:33:20,-2.2617,5.7852,6.8555,0.926819,0.329163,0.170105,0.060486
2026-04-22 14:33:20,-1.6836,6.0508,6.9297,0.926880,0.328613,0.170837,0.060669
2026-04-22 14:33:20,-1.9141,6.4727,7.1641,0.926025,0.329346,0.173950,0.061035
2026-04-22 14:33:20,-3.4492,6.0898,6.8555,0.925781,0.329651,0.174744,0.061096
2026-04-22 14:33:20,-1.9531,6.5117,7.2031,0.925781,0.329834,0.174316,0.061035
2026-04-22 14:33:20,-2.7969,5.6328,6.7461,0.925842,0.329712,0.174133,0.061035
2026-04-22 14:33:20,-3.1016,5.4766,6.6250,0.926025,0.329041,0.174500,0.061218
2026-04-22 14:33:20,-2.7969,5.7070,6.7461,0.925964,0.329407,0.174316,0.061157
2026-04-22 14:33:20,-2.2969,6.3594,7.0508,0.925781,0.329834,0.174377,0.061035
2026-04-22 14:33:20,-3.0664,6.0898,6.8906,0.925720,0.329773,0.174744,0.061096
2026-04-22 14:33:20,-2.4531,6.1289,6.9688,0.925842,0.329712,0.174377,0.061096
2026-04-22 14:33:20,-2.5664,5.8594,6.8945,0.925903,0.329590,0.174072,0.061035
2026-04-22 14:33:20,-2.6055,6.3203,7.0117,0.925110,0.328980,0.179138,0.061707
2026-04-22 14:33:20,-2.9883,6.4375,7.0508,0.924927,0.328735,0.180664,0.061646
2026-04-22 14:33:20,-3.9844,6.3203,6.8555,0.925293,0.328125,0.180115,0.061035
2026-04-22 14:33:20,-1.0742,6.6289,7.1641,0.925720,0.327637,0.179138,0.060303
2026-04-22 14:33:20,-3.1797,6.2813,7.0078,0.926208,0.326477,0.178650,0.059692
2026-04-22 14:33:20,-2.9883,6.1289,7.0078,0.926880,0.325012,0.178406,0.058716
2026-04-22 14:33:20,-2.4531,5.7461,6.8242,0.927429,0.323425,0.178711,0.057922
2026-04-22 14:33:20,-1.9531,5.6680,7.0078,0.928040,0.321777,0.178101,0.059082
2026-04-22 14:33:20,-1.1484,5.2109,6.9688,0.928467,0.320618,0.177063,0.061523
2026-04-22 14:33:20,-3.6406,6.2422,7.2383,0.929749,0.318298,0.172668,0.066650
2026-04-22 14:33:20,-2.7578,5.8984,7.3906,0.935669,0.307190,0.157837,0.072632
2026-04-22 14:33:20,-2.1445,5.5547,7.3164,0.937134,0.304688,0.153381,0.073486
2026-04-22 14:33:20,-1.9531,5.5156,7.2070,0.938049,0.302917,0.151489,0.073608
2026-04-22 14:33:21,-2.2617,5.5156,7.4336,0.938782,0.301147,0.149902,0.074097
2026-04-22 14:33:21,-2.1836,5.6680,7.5859,0.939575,0.299438,0.148315,0.074768
2026-04-22 14:33:21,-2.2227,5.6680,7.5898,0.940369,0.297546,0.146606,0.075378
2026-04-22 14:33:21,-2.2617,5.7852,7.6992,0.940613,0.296997,0.146240,0.075439
2026-04-22 14:33:21,-2.2969,5.4414,7.4688,0.941223,0.295471,0.145386,0.075317
2026-04-22 14:33:21,-2.2227,5.4414,7.6250,0.943176,0.290405,0.143372,0.074158
2026-04-22 14:33:21,-2.1836,5.4766,7.6602,0.944580,0.286865,0.142151,0.072998
2026-04-22 14:33:21,-2.1836,5.2109,8.1992,0.953735,0.259888,0.131409,0.074341
2026-04-22 14:33:21,-1.9141,4.7109,8.0781,0.956116,0.252319,0.128418,0.075745
2026-04-22 14:33:21,-1.6836,4.6719,8.1953,0.956726,0.250122,0.127747,0.076050
2026-04-22 14:33:21,-1.8398,4.7109,8.1211,0.958191,0.245178,0.126282,0.076599
2026-04-22 14:33:21,-2.1055,4.4805,8.0391,0.959290,0.241150,0.125366,0.076721
2026-04-22 14:33:21,-2.2617,4.7891,8.3945,0.960327,0.237549,0.124390,0.076721
2026-04-22 14:33:21,-1.8789,4.6367,8.5391,0.961487,0.233582,0.123474,0.076050
2026-04-22 14:33:21,-1.7617,4.4063,8.4219,0.962402,0.230225,0.122925,0.075317
2026-04-22 14:33:21,-1.7617,4.2539,8.2734,0.962585,0.229492,0.122803,0.075195
2026-04-22 14:33:21,-1.8008,4.0977,8.2773,0.964050,0.223877,0.121948,0.074768
2026-04-22 14:33:21,-1.9141,3.9063,8.5000,0.968323,0.205750,0.120605,0.073914
2026-04-22 14:33:21,-1.9531,3.6406,8.4258,0.969482,0.200317,0.121338,0.072571
2026-04-22 14:33:21,-1.8398,3.4102,8.5000,0.970093,0.197388,0.121704,0.072083
2026-04-22 14:33:21,-2.1055,3.7539,8.6172,0.970642,0.194458,0.122009,0.071411
2026-04-22 14:33:21,-1.9531,3.7148,8.6602,0.971252,0.191650,0.122375,0.070618
2026-04-22 14:33:21,-2.0703,3.6016,8.6992,0.971741,0.189209,0.122620,0.070251
2026-04-22 14:33:21,-1.8008,3.4844,8.6563,0.972168,0.187012,0.122803,0.069885
2026-04-22 14:33:21,-1.9531,3.4102,8.6211,0.972595,0.184448,0.123291,0.069336
2026-04-22 14:33:21,-1.8789,3.3711,8.6992,0.973022,0.182068,0.123962,0.068848
2026-04-22 14:33:21,-2.1445,3.2930,8.6211,0.973084,0.181702,0.124084,0.068787
2026-04-22 14:33:21,-1.9141,3.2930,8.8477,0.975281,0.171631,0.123535,0.063843
2026-04-22 14:33:21,-1.9922,3.2578,8.8477,0.975403,0.171143,0.123596,0.063660
2026-04-22 14:33:21,-2.0703,3.2188,8.7734,0.975464,0.170715,0.123535,0.063660
2026-04-22 14:33:21,-2.1836,3.1797,8.6992,0.975525,0.170349,0.123413,0.063599
2026-04-22 14:33:21,-1.9922,3.1406,8.6172,0.975586,0.170105,0.123474,0.063416
2026-04-22 14:33:21,-1.8398,3.1016,8.6172,0.975586,0.169983,0.123596,0.063293
2026-04-22 14:33:21,-1.9531,3.1797,8.8164,0.975586,0.169983,0.123840,0.063354
2026-04-22 14:33:21,-2.0703,3.2188,8.8828,0.975525,0.170044,0.124084,0.063477
2026-04-22 14:33:21,-2.1836,3.2578,8.9648,0.975464,0.170349,0.124207,0.063538
2026-04-22 14:33:21,-2.2227,3.2930,8.8828,0.975403,0.170654,0.124207,0.063477
2026-04-22 14:33:21,-2.4141,3.2578,8.5430,0.975159,0.173279,0.122314,0.063721
2026-04-22 14:33:21,-1.6094,3.2930,8.7773,0.975159,0.173462,0.122009,0.063782
2026-04-22 14:33:21,-1.6094,3.2578,8.7383,0.975098,0.174622,0.120850,0.064209
2026-04-22 14:33:22,-2.2969,3.4492,9.2305,0.974976,0.175415,0.120483,0.064087
2026-04-22 14:33:22,-2.0313,3.4492,9.0391,0.974915,0.176025,0.120300,0.063477
2026-04-22 14:33:22,-1.9531,3.4844,8.9609,0.974915,0.176392,0.120056,0.062805
2026-04-22 14:33:22,-2.0313,3.4492,8.9258,0.974976,0.176514,0.119995,0.062622
2026-04-22 14:33:22,-1.6484,3.3711,8.7773,0.974976,0.176758,0.119751,0.062195
2026-04-22 14:33:22,-1.8789,3.3711,8.8438,0.974915,0.177246,0.119629,0.061523
2026-04-22 14:33:22,-1.8789,3.3711,8.7734,0.974854,0.177490,0.119690,0.061462
2026-04-22 14:33:22,-1.9141,3.3711,8.7383,0.974854,0.178162,0.119263,0.060913
2026-04-22 14:33:22,-1.8398,3.4102,8.8438,0.974854,0.178040,0.119202,0.060913
2026-04-22 14:33:22,-2.0703,3.4492,8.8477,0.974915,0.177856,0.119141,0.060913
2026-04-22 14:33:22,-2.1445,3.4102,8.8125,0.974976,0.177673,0.119080,0.060974
2026-04-22 14:33:22,-1.9922,3.3320,8.6953,0.974976,0.177551,0.118958,0.060913
2026-04-22 14:33:22,-1.9531,3.3320,8.6602,0.975037,0.177490,0.118774,0.060791
2026-04-22 14:33:22,-1.9531,3.3320,8.6602,0.975098,0.177490,0.118530,0.060730
2026-04-22 14:33:22,-1.9141,3.3320,8.6953,0.975098,0.177429,0.118225,0.060608
2026-04-22 14:33:22,-2.1055,3.3711,8.6992,0.975159,0.177429,0.117981,0.060364
2026-04-22 14:33:22,-1.9531,3.5234,9.0000,0.975220,0.177429,0.117676,0.059937
2026-04-22 14:33:22,-2.0313,3.4102,8.8477,0.975891,0.176270,0.116150,0.055664
2026-04-22 14:33:22,-1.8398,3.3711,8.8828,0.975891,0.176208,0.116150,0.055237
2026-04-22 14:33:22,-1.9141,3.4102,8.7773,0.975952,0.176086,0.116089,0.054993
2026-04-22 14:33:22,-1.8398,3.3711,8.6992,0.976013,0.175842,0.116150,0.054993
2026-04-22 14:33:22,-1.8789,3.3320,8.7734,0.976013,0.175537,0.116150,0.055237
2026-04-22 14:33:22,-1.9531,3.2930,8.8125,0.976074,0.175232,0.116211,0.055481
2026-04-22 14:33:22,-2.0313,3.2930,8.8125,0.976074,0.175171,0.116211,0.055481
2026-04-22 14:33:22,-2.0703,3.3320,8.7344,0.976135,0.174805,0.116516,0.055237
2026-04-22 14:33:22,-2.1055,3.3320,8.7734,0.976196,0.174683,0.116516,0.054932
2026-04-22 14:33:22,-1.9141,3.2930,8.8477,0.976196,0.174561,0.116333,0.054626
2026-04-22 14:33:22,-2.0703,3.3320,8.7344,0.976318,0.173523,0.116760,0.054749
2026-04-22 14:33:22,-1.9141,3.2188,8.6211,0.976440,0.173035,0.116821,0.055115
2026-04-22 14:33:22,-2.0313,3.2930,8.8125,0.976379,0.172974,0.116943,0.055298
2026-04-22 14:33:22,-2.0703,3.3320,8.8828,0.976379,0.173035,0.117004,0.055359
2026-04-22 14:33:22,-1.9531,3.3320,8.8867,0.976379,0.173035,0.117126,0.055420
2026-04-22 14:33:22,-1.9141,3.4102,8.9219,0.976379,0.173035,0.117126,0.055420
2026-04-22 14:33:22,-2.0313,3.3320,8.8125,0.976318,0.172974,0.117310,0.055481
2026-04-22 14:33:22,-1.8789,3.2578,8.6992,0.976318,0.172668,0.117859,0.055725
2026-04-22 14:33:22,-2.0313,3.2578,8.6953,0.976257,0.172485,0.118347,0.055847
2026-04-22 14:33:22,-2.0313,3.2930,8.8125,0.976257,0.172424,0.118530,0.055908
2026-04-22 14:33:22,-2.1055,3.2578,8.6992,0.976501,0.170837,0.117737,0.058411
2026-04-22 14:33:22,-2.0313,3.3320,8.8477,0.976562,0.170715,0.117615,0.058350
2026-04-22 14:33:22,-1.9531,3.2930,8.8477,0.976624,0.170532,0.117371,0.058228
2026-04-22 14:33:22,-1.9531,3.2930,8.8867,0.976685,0.170349,0.117126,0.058105
2026-04-22 14:33:22,-1.9531,3.2930,8.8477,0.976746,0.170105,0.116882,0.058105
2026-04-22 14:33:23,-1.9141,3.2188,8.7773,0.976807,0.170044,0.116638,0.058167
2026-04-22 14:33:23,-2.0313,3.1797,8.7344,0.976807,0.169983,0.116394,0.058167
2026-04-22 14:33:23,-1.9531,3.2578,8.8125,0.976868,0.169861,0.116028,0.058105
2026-04-22 14:33:23,-1.9141,3.2578,8.8125,0.976929,0.169800,0.115662,0.058105
2026-04-22 14:33:23,-1.9141,3.2578,8.8125,0.976990,0.169800,0.115356,0.057983
2026-04-22 14:33:23,-1.9531,3.2930,8.9648,0.976990,0.170288,0.114929,0.057312
2026-04-22 14:33:23,-1.7617,3.2930,8.7344,0.976990,0.170349,0.114807,0.057129
2026-04-22 14:33:23,-1.8398,3.2930,8.8164,0.976990,0.170471,0.114685,0.057007
2026-04-22 14:33:23,-1.9141,3.3711,8.9219,0.976990,0.170471,0.114563,0.057007
2026-04-22 14:33:23,-2.0313,3.4102,9.0039,0.976990,0.170654,0.114380,0.057007
2026-04-22 14:33:23,-1.9141,3.3711,8.8867,0.977051,0.170593,0.114258,0.056824
2026-04-22 14:33:23,-1.9922,3.3320,8.8867,0.977112,0.170471,0.114136,0.056702
2026-04-22 14:33:23,-1.9922,3.3711,9.0039,0.977173,0.170288,0.113892,0.056519
2026-04-22 14:33:23,-2.0313,3.1797,8.7344,0.977234,0.170166,0.113708,0.056213
2026-04-22 14:33:23,-1.8398,3.1797,8.6953,0.977234,0.170166,0.113525,0.056030
2026-04-22 14:33:23,-1.9141,3.2930,8.8867,0.977234,0.170410,0.113403,0.056091
2026-04-22 14:33:23,-1.8789,3.2930,8.9258,0.977173,0.170410,0.113525,0.056152
2026-04-22 14:33:23,-1.8789,3.2188,8.7344,0.977112,0.170471,0.113892,0.056213
2026-04-22 14:33:23,-1.9531,3.2578,8.7773,0.977112,0.170593,0.114075,0.056274
2026-04-22 14:33:23,-1.9922,3.2578,8.8477,0.977051,0.170654,0.114319,0.056274
2026-04-22 14:33:23,-2.0703,3.2578,8.7344,0.976990,0.170776,0.114502,0.056274
2026-04-22 14:33:23,-1.9531,3.2578,8.7773,0.976990,0.170837,0.114563,0.056213
2026-04-22 14:33:23,-1.9531,3.3320,8.8125,0.976929,0.171143,0.114807,0.056152
2026-04-22 14:33:23,-1.9531,3.2930,8.8125,0.976868,0.171387,0.114807,0.056274
2026-04-22 14:33:23,-1.9141,3.3711,8.8867,0.976807,0.171631,0.114990,0.056274
2026-04-22 14:33:23,-1.9141,3.2188,8.6953,0.976501,0.172607,0.116333,0.055725
2026-04-22 14:33:23,-1.6094,3.3320,8.8125,0.976196,0.173401,0.117920,0.055359
2026-04-22 14:33:23,-1.9922,3.4102,8.8125,0.976074,0.173645,0.118652,0.055359
2026-04-22 14:33:23,-2.0313,3.5234,9.1172,0.975647,0.174316,0.121338,0.055176
2026-04-22 14:33:23,-2.1836,3.6406,9.0781,0.975342,0.174683,0.123169,0.054932
2026-04-22 14:33:23,-1.9922,3.4492,8.8164,0.975037,0.174988,0.125000,0.054810
2026-04-22 14:33:23,-2.0703,3.3320,8.6992,0.974854,0.175049,0.126709,0.054871
2026-04-22 14:33:23,-2.2227,3.3320,8.5000,0.974609,0.175110,0.128479,0.054993
2026-04-22 14:33:23,-2.0703,3.3320,8.5391,0.974304,0.175293,0.130127,0.055115
2026-04-22 14:33:23,-2.0313,3.2188,8.6953,0.973999,0.175537,0.132202,0.055298
2026-04-22 14:33:23,-2.4883,3.5234,8.5391,0.970581,0.177795,0.151550,0.058167
2026-04-22 14:33:23,-2.6797,3.5625,8.8438,0.969421,0.177856,0.158264,0.059692
2026-04-22 14:33:23,-3.0273,3.5625,8.4648,0.968750,0.177673,0.162109,0.060852
2026-04-22 14:33:23,-2.9492,3.5625,8.5781,0.968079,0.177368,0.165833,0.061646
2026-04-22 14:33:23,-2.9102,3.6016,8.5820,0.967529,0.177002,0.169373,0.062195
2026-04-22 14:33:23,-3.4492,3.4844,8.3945,0.967102,0.176270,0.172424,0.062866
2026-04-22 14:33:23,-2.9492,3.5625,8.6563,0.966675,0.175476,0.175537,0.063232
2026-04-22 14:33:23,-3.1406,3.4492,8.4648,0.966248,0.174622,0.178589,0.063477
2026-04-22 14:33:23,-3.2930,3.3711,8.2773,0.965759,0.173706,0.182068,0.063599
2026-04-22 14:33:24,-3.2188,3.3711,8.3516,0.965576,0.173401,0.182983,0.063660
2026-04-22 14:33:24,-3.6406,3.4102,8.2344,0.962585,0.169250,0.201599,0.064697
2026-04-22 14:33:24,-3.5625,3.3711,8.3125,0.961121,0.167542,0.209961,0.063660
2026-04-22 14:33:24,-3.6016,3.2930,8.1211,0.960388,0.166565,0.214355,0.063232
2026-04-22 14:33:24,-3.7539,3.2188,8.0078,0.959656,0.165588,0.218445,0.062927
2026-04-22 14:33:24,-4.1367,3.2930,8.1211,0.959045,0.164673,0.221802,0.062805
2026-04-22 14:33:24,-4.0625,3.1797,8.1172,0.958496,0.163696,0.224854,0.062683
2026-04-22 14:33:24,-4.2148,3.1016,8.0078,0.958069,0.162842,0.227234,0.062439
2026-04-22 14:33:24,-4.2539,3.1016,7.7344,0.957703,0.162231,0.229431,0.062073
2026-04-22 14:33:24,-4.0977,3.1406,8.0781,0.957153,0.161804,0.232056,0.061523
2026-04-22 14:33:24,-4.0234,3.3711,8.3555,0.956604,0.161316,0.234741,0.061035
2026-04-22 14:33:24,-4.4805,3.1406,7.9336,0.953125,0.157166,0.251892,0.058289
2026-04-22 14:33:24,-4.7109,3.0664,7.7344,0.952393,0.156738,0.255127,0.057800
2026-04-22 14:33:24,-4.8281,3.1016,7.7383,0.952271,0.156738,0.255371,0.057739
2026-04-22 14:33:24,-4.6367,3.1016,7.7344,0.952271,0.156738,0.255554,0.057678
2026-04-22 14:33:24,-4.4453,3.0664,7.7383,0.952148,0.156799,0.255798,0.057800
2026-04-22 14:33:24,-4.4805,3.1797,7.8945,0.952148,0.156860,0.255859,0.058167
2026-04-22 14:33:24,-4.5195,3.1406,7.8906,0.952026,0.156921,0.256042,0.058533
2026-04-22 14:33:24,-4.5195,3.1406,7.9297,0.951843,0.157043,0.256592,0.058838
2026-04-22 14:33:24,-4.5586,3.1406,7.8164,0.951660,0.157288,0.257141,0.059265
2026-04-22 14:33:24,-4.5586,3.1016,7.7773,0.951538,0.157471,0.257324,0.059814
2026-04-22 14:33:24,-4.6719,3.2188,7.8906,0.951843,0.158020,0.255310,0.062134
2026-04-22 14:33:24,-4.5586,3.2578,7.9688,0.951965,0.157898,0.255005,0.062134
2026-04-22 14:33:24,-4.5586,3.1797,8.0078,0.952087,0.157715,0.254578,0.062256
2026-04-22 14:33:24,-4.5586,3.1797,7.8555,0.952209,0.157532,0.254150,0.062256
2026-04-22 14:33:24,-4.4063,3.1406,7.8906,0.952271,0.157471,0.254028,0.062317
2026-04-22 14:33:24,-4.3672,3.1016,7.8516,0.952393,0.157166,0.253601,0.062805
2026-04-22 14:33:24,-4.4063,3.1016,7.8516,0.952454,0.157043,0.253357,0.063110
2026-04-22 14:33:24,-4.3672,3.1016,7.8125,0.952454,0.156921,0.253296,0.063538
2026-04-22 14:33:24,-4.4805,3.1406,7.8125,0.952454,0.156799,0.253357,0.063843
2026-04-22 14:33:24,-4.4453,3.1797,7.8516,0.952393,0.156738,0.253540,0.064087
2026-04-22 14:33:24,-4.6367,3.0273,7.7344,0.952271,0.155579,0.254150,0.066528
2026-04-22 14:33:24,-4.6367,3.1016,7.8906,0.952148,0.155579,0.254395,0.066711
2026-04-22 14:33:24,-4.5586,3.2188,7.9688,0.952148,0.155701,0.254456,0.066528
2026-04-22 14:33:24,-4.4805,3.2578,7.9297,0.952148,0.155762,0.254395,0.066406
2026-04-22 14:33:24,-4.3672,3.2578,7.9688,0.952209,0.155640,0.254395,0.066345
2026-04-22 14:33:24,-4.4453,3.1406,7.7773,0.952209,0.155518,0.254456,0.066223
2026-04-22 14:33:24,-4.4453,3.1406,7.9336,0.952209,0.155457,0.254578,0.066223
2026-04-22 14:33:24,-4.6367,3.1406,7.9688,0.952148,0.155396,0.254578,0.066284
2026-04-22 14:33:24,-4.7109,3.1797,7.9727,0.952209,0.155334,0.254639,0.066223
2026-04-22 14:33:24,-4.5977,3.1797,7.8516,0.952209,0.155273,0.254578,0.066101
2026-04-22 14:33:25,-4.5195,3.1406,8.0078,0.952209,0.154541,0.255066,0.066284
2026-04-22 14:33:25,-4.4805,3.1016,7.8555,0.952209,0.153992,0.255493,0.066101
2026-04-22 14:33:25,-4.4453,3.1406,7.7383,0.952209,0.153809,0.255615,0.066040
2026-04-22 14:33:25,-4.4805,3.1406,7.8516,0.952148,0.153687,0.255859,0.066101
2026-04-22 14:33:25,-4.5586,3.1406,7.8555,0.952087,0.153625,0.256104,0.066223
2026-04-22 14:33:25,-4.5195,3.0664,7.7734,0.952026,0.153503,0.256409,0.066284
2026-04-22 14:33:25,-4.6367,3.1406,7.8945,0.951904,0.153381,0.256714,0.066406
2026-04-22 14:33:25,-4.6367,3.1406,7.9336,0.951904,0.153442,0.256775,0.066589
2026-04-22 14:33:25,-4.6367,3.1016,7.8164,0.951904,0.153442,0.256714,0.066833
2026-04-22 14:33:25,-4.6719,3.1406,7.8125,0.951904,0.153625,0.256531,0.067017
2026-04-22 14:33:25,-4.5195,3.1406,7.8906,0.952148,0.155029,0.254883,0.066895
2026-04-22 14:33:25,-4.5195,3.1406,7.8164,0.952087,0.155457,0.254761,0.067139
2026-04-22 14:33:25,-4.4453,3.1797,7.8125,0.952087,0.155701,0.254578,0.067200
2026-04-22 14:33:25,-4.5195,3.2578,7.9688,0.952026,0.155823,0.254578,0.067322
2026-04-22 14:33:25,-4.3672,3.2188,7.9688,0.952026,0.155884,0.254700,0.067383
2026-04-22 14:33:25,-4.5586,3.1016,7.7383,0.951965,0.155945,0.254822,0.067444
2026-04-22 14:33:25,-4.5586,3.1797,7.8164,0.951904,0.155945,0.254944,0.067505
2026-04-22 14:33:25,-4.5586,3.1797,7.8906,0.951843,0.156006,0.255127,0.067505
2026-04-22 14:33:25,-4.5977,3.2578,7.9727,0.951782,0.156006,0.255371,0.067383
2026-04-22 14:33:25,-4.5195,3.2188,7.8516,0.951782,0.155884,0.255554,0.067261
2026-04-22 14:33:25,-4.5195,3.1406,7.9297,0.951843,0.155396,0.255798,0.066345
2026-04-22 14:33:25,-4.5195,3.1406,7.9297,0.951904,0.155151,0.255859,0.065552
2026-04-22 14:33:25,-4.5195,3.1406,7.8555,0.951904,0.155090,0.255920,0.065430
2026-04-22 14:33:25,-4.4805,3.1406,7.8945,0.951965,0.155151,0.255737,0.065491
2026-04-22 14:33:25,-4.4805,3.1797,7.8516,0.952026,0.155151,0.255554,0.065552
2026-04-22 14:33:25,-4.4805,3.1406,7.8516,0.952026,0.155151,0.255432,0.065613
2026-04-22 14:33:25,-4.5586,3.2188,7.9336,0.952087,0.155151,0.255371,0.065491
2026-04-22 14:33:25,-4.5586,3.1797,7.8906,0.952087,0.155029,0.255371,0.065369
2026-04-22 14:33:25,-4.5586,3.2188,7.9688,0.952087,0.155029,0.255432,0.065369
2026-04-22 14:33:25,-4.5195,3.1406,7.8906,0.952087,0.154785,0.255615,0.065125
2026-04-22 14:33:25,-4.4805,3.1406,7.9336,0.951965,0.154541,0.256470,0.064331
2026-04-22 14:33:25,-4.3672,3.1406,7.8906,0.952026,0.154541,0.256348,0.064026
2026-04-22 14:33:25,-4.4063,3.1016,7.8945,0.952026,0.154480,0.256287,0.064026
2026-04-22 14:33:25,-4.4453,3.1797,8.0117,0.952026,0.154480,0.256287,0.064026
2026-04-22 14:33:25,-4.6719,3.1797,7.9336,0.952026,0.154419,0.256226,0.063965
2026-04-22 14:33:25,-4.6367,3.1797,7.9336,0.952148,0.154419,0.256104,0.063660
2026-04-22 14:33:25,-4.4453,3.1406,7.8125,0.952209,0.154358,0.255859,0.063293
2026-04-22 14:33:25,-4.4453,3.0273,7.7344,0.952271,0.154053,0.255920,0.062622
2026-04-22 14:33:25,-4.4453,3.1406,7.7773,0.952332,0.153748,0.256042,0.062012
2026-04-22 14:33:25,-4.5586,2.9883,7.8125,0.952393,0.153503,0.256165,0.061462
2026-04-22 14:33:26,-4.4453,3.0273,7.8164,0.952637,0.154907,0.254761,0.060303
2026-04-22 14:33:26,-4.3672,3.0664,7.8164,0.952637,0.155090,0.254578,0.060242
2026-04-22 14:33:26,-4.3672,3.1406,7.8906,0.952698,0.156128,0.253723,0.060486
2026-04-22 14:33:26,-4.5586,3.1797,8.0078,0.952698,0.156860,0.253235,0.060730
2026-04-22 14:33:26,-4.5195,3.2578,8.0781,0.952637,0.157471,0.252930,0.060974
2026-04-22 14:33:26,-4.5586,3.1797,7.9297,0.952637,0.158081,0.252625,0.061157
2026-04-22 14:33:26,-4.6367,3.4492,7.9688,0.952637,0.158203,0.252502,0.061157
2026-04-22 14:33:26,-4.5195,3.2578,7.8516,0.952759,0.159607,0.250916,0.061829
2026-04-22 14:33:26,-4.4453,3.2578,7.9727,0.953003,0.161011,0.248901,0.062561
2026-04-22 14:33:26,-4.4453,3.0664,7.8125,0.953247,0.162292,0.246948,0.063232
2026-04-22 14:33:26,-4.0977,3.7148,8.2383,0.953430,0.177185,0.235229,0.064941
2026-04-22 14:33:26,-4.0625,3.3320,7.5117,0.953552,0.179016,0.233643,0.064453
2026-04-22 14:33:26,-3.8320,3.3711,7.5117,0.953613,0.183777,0.229919,0.063538
2026-04-22 14:33:26,-3.8320,3.7930,8.0820,0.953369,0.189453,0.226318,0.062805
2026-04-22 14:33:26,-3.9063,3.4492,7.9297,0.953308,0.190918,0.225342,0.062988
2026-04-22 14:33:26,-3.7148,3.3320,7.5898,0.953125,0.195007,0.222229,0.064514
2026-04-22 14:33:26,-3.5625,3.6758,7.4336,0.952698,0.199890,0.218933,0.066956
2026-04-22 14:33:26,-3.5234,3.8672,7.5117,0.952148,0.205139,0.215698,0.069580
2026-04-22 14:33:26,-3.3711,4.0977,7.7344,0.951538,0.210022,0.212585,0.072571
2026-04-22 14:33:26,-3.5625,4.4063,8.0117,0.950989,0.214172,0.210022,0.075134
2026-04-22 14:33:26,-3.2930,4.4453,7.6563,0.948914,0.228027,0.204346,0.076294
2026-04-22 14:33:26,-3.6758,4.7109,7.7734,0.947693,0.234863,0.202209,0.076233
2026-04-22 14:33:26,-3.6758,4.6719,7.5859,0.947144,0.238098,0.201355,0.075623
2026-04-22 14:33:26,-3.4102,4.7109,7.6250,0.946533,0.241455,0.200317,0.074890
2026-04-22 14:33:26,-3.1406,4.6367,7.5859,0.946411,0.242371,0.200073,0.074768
2026-04-22 14:33:26,-3.0273,4.9023,7.5508,0.945190,0.248413,0.198547,0.073975
2026-04-22 14:33:26,-3.0664,4.9414,7.6953,0.944885,0.250000,0.198242,0.073853
2026-04-22 14:33:26,-2.9883,4.9805,7.6563,0.944275,0.252686,0.197693,0.073853
2026-04-22 14:33:26,-2.9102,5.1328,7.5078,0.942627,0.259216,0.196716,0.074463
2026-04-22 14:33:26,-3.4102,5.5547,8.0430,0.940735,0.266418,0.195618,0.076294
2026-04-22 14:33:26,-3.2188,6.0508,7.0117,0.929993,0.304443,0.181396,0.097778
2026-04-22 14:33:26,-2.6445,5.9766,7.0078,0.928223,0.309326,0.181091,0.099792
2026-04-22 14:33:26,-2.6055,6.0898,7.0469,0.927246,0.311890,0.180969,0.100708
2026-04-22 14:33:26,-2.7578,6.1289,7.0078,0.926453,0.314331,0.180542,0.101501
2026-04-22 14:33:26,-2.6797,6.0156,6.8945,0.925659,0.316711,0.179993,0.102112
2026-04-22 14:33:26,-2.6445,6.2070,6.9336,0.924927,0.318970,0.179626,0.102478
2026-04-22 14:33:26,-2.4141,6.2813,7.0117,0.924072,0.321350,0.179443,0.102783
2026-04-22 14:33:26,-2.4883,6.2813,6.9297,0.923706,0.322510,0.179382,0.103027
2026-04-22 14:33:26,-2.7969,6.1680,6.7461,0.922424,0.326050,0.178955,0.103638
2026-04-22 14:33:26,-2.5664,6.3203,6.8555,0.921692,0.328369,0.178589,0.103760
2026-04-22 14:33:27,-2.2617,6.4727,6.7461,0.918518,0.338745,0.176514,0.101807
2026-04-22 14:33:27,-2.3750,6.3984,6.5469,0.918457,0.339172,0.176270,0.101685
2026-04-22 14:33:27,-2.4141,6.3984,6.4375,0.918335,0.339661,0.176147,0.101562
2026-04-22 14:33:27,-2.4531,6.4375,6.5859,0.918091,0.340210,0.176270,0.101257
2026-04-22 14:33:27,-2.4531,6.4727,6.5859,0.917908,0.340698,0.176575,0.100891
2026-04-22 14:33:27,-2.4883,6.4375,6.5859,0.917725,0.341125,0.176819,0.100525
2026-04-22 14:33:27,-2.6055,6.4375,6.6289,0.917603,0.341614,0.176819,0.100098
2026-04-22 14:33:27,-2.4531,6.4375,6.6641,0.917480,0.342224,0.176575,0.099731
2026-04-22 14:33:27,-2.4141,6.4375,6.5859,0.917297,0.343018,0.176086,0.099670
2026-04-22 14:33:27,-2.3359,6.5898,6.5859,0.917053,0.343811,0.175476,0.100281
2026-04-22 14:33:27,-2.4531,6.6641,6.6289,0.914612,0.350403,0.175232,0.099976
2026-04-22 14:33:27,-2.3750,6.7070,6.5508,0.913940,0.351929,0.175659,0.100342
2026-04-22 14:33:27,-2.1836,6.7031,6.5117,0.913818,0.352356,0.175476,0.100037
2026-04-22 14:33:27,-2.2617,6.6289,6.4727,0.913635,0.352844,0.175476,0.099792
2026-04-22 14:33:27,-2.3750,6.7461,6.5508,0.913513,0.353027,0.175781,0.099854
2026-04-22 14:33:27,-2.4883,6.7852,6.5508,0.913452,0.353088,0.176025,0.099976
2026-04-22 14:33:27,-2.4141,6.6641,6.4375,0.913391,0.353088,0.176025,0.099976
2026-04-22 14:33:27,-2.3750,6.7031,6.5117,0.913391,0.353088,0.176086,0.100159
2026-04-22 14:33:27,-2.6055,6.5859,6.3984,0.913391,0.352905,0.176086,0.100708
2026-04-22 14:33:27,-2.7188,6.6641,6.4727,0.913452,0.352783,0.175964,0.100769
2026-04-22 14:33:27,-2.3750,6.6250,6.5117,0.914429,0.351135,0.174438,0.100281
2026-04-22 14:33:27,-2.6445,6.6289,6.5508,0.914490,0.350891,0.174500,0.100342
2026-04-22 14:33:27,-2.5273,6.6289,6.5508,0.914795,0.349915,0.174744,0.100708
2026-04-22 14:33:27,-2.3750,6.5117,6.5078,0.915039,0.349365,0.174683,0.100586
2026-04-22 14:33:27,-2.2969,6.4727,6.4375,0.915161,0.349121,0.174622,0.100586
2026-04-22 14:33:27,-2.3750,6.4727,6.4688,0.915283,0.348816,0.174622,0.100586
2026-04-22 14:33:27,-2.4531,6.3594,6.5117,0.915466,0.348389,0.174500,0.100647
2026-04-22 14:33:27,-2.3359,6.5117,6.5078,0.915466,0.348389,0.174438,0.100586
2026-04-22 14:33:27,-2.4531,6.5117,6.5859,0.915466,0.348389,0.174255,0.100708
2026-04-22 14:33:27,-2.4883,6.5117,6.5508,0.915527,0.348389,0.173828,0.101013
2026-04-22 14:33:27,-2.4141,6.5898,6.5508,0.915771,0.348572,0.172485,0.100708
2026-04-22 14:33:27,-2.3750,6.5117,6.5859,0.916077,0.347839,0.172546,0.100281
2026-04-22 14:33:27,-2.3359,6.5117,6.6250,0.916138,0.347717,0.172607,0.100220
2026-04-22 14:33:27,-2.4141,6.5508,6.5898,0.916138,0.347534,0.172668,0.100159
2026-04-22 14:33:27,-2.3359,6.5117,6.5859,0.916199,0.347412,0.172791,0.100037
2026-04-22 14:33:27,-2.4141,6.5898,6.6641,0.916321,0.347229,0.172729,0.099854
2026-04-22 14:33:27,-2.3359,6.4375,6.4688,0.916321,0.347229,0.172729,0.099792
2026-04-22 14:33:27,-2.4141,6.5508,6.6289,0.916504,0.346741,0.172729,0.099854
2026-04-22 14:33:27,-2.4883,6.5117,6.5508,0.916626,0.346375,0.172791,0.100037
2026-04-22 14:33:27,-2.3359,6.4727,6.6250,0.916748,0.345947,0.172913,0.100098
2026-04-22 14:33:28,-2.5664,6.3984,6.5859,0.918701,0.340515,0.173218,0.100098
2026-04-22 14:33:28,-2.4531,6.3594,6.6680,0.919067,0.339722,0.172974,0.099976
2026-04-22 14:33:28,-2.4883,6.3594,6.6680,0.919373,0.339111,0.172668,0.099854
2026-04-22 14:33:28,-2.4141,6.3984,6.6289,0.918640,0.340942,0.172729,0.099854
2026-04-22 14:33:28,-2.4141,6.3984,6.8555,0.918274,0.342163,0.172668,0.099731
2026-04-22 14:33:28,-2.4141,6.4375,6.8242,0.918091,0.342712,0.172363,0.099609
2026-04-22 14:33:28,-2.2617,6.2070,6.7070,0.918152,0.343140,0.171753,0.098877
2026-04-22 14:33:28,-2.3359,6.1680,6.6641,0.918274,0.342896,0.171631,0.098694
2026-04-22 14:33:28,-2.2617,6.2070,6.6680,0.918335,0.342773,0.171570,0.098633
2026-04-22 14:33:28,-2.2969,6.2070,6.7070,0.918457,0.342590,0.171265,0.098816
2026-04-22 14:33:28,-2.3750,6.2813,6.7070,0.918884,0.341919,0.169739,0.099487
2026-04-22 14:33:28,-2.4141,6.2422,6.7461,0.919250,0.341431,0.168640,0.099548
2026-04-22 14:33:28,-2.3750,6.3594,6.7852,0.919495,0.341125,0.167908,0.099609
2026-04-22 14:33:28,-2.6055,6.3203,6.7852,0.919617,0.341064,0.167664,0.099670
2026-04-22 14:33:28,-2.2617,6.3984,6.9336,0.920105,0.340454,0.165771,0.099792
2026-04-22 14:33:28,-2.2227,6.4375,6.8906,0.920532,0.339966,0.164612,0.099915
2026-04-22 14:33:28,-2.2227,6.4727,6.9297,0.920959,0.339294,0.163452,0.099976
2026-04-22 14:33:28,-2.2969,6.2070,6.7461,0.921143,0.338928,0.163147,0.099915
2026-04-22 14:33:28,-2.1445,6.2422,6.9297,0.921997,0.337219,0.162292,0.099487
2026-04-22 14:33:28,-2.1445,6.2070,6.8945,0.922546,0.335999,0.161743,0.099304
2026-04-22 14:33:28,-2.3750,6.0898,7.1641,0.926514,0.325134,0.159241,0.102356
2026-04-22 14:33:28,-2.3359,6.0508,7.1289,0.927246,0.323547,0.158020,0.102783
2026-04-22 14:33:28,-2.2969,6.0508,7.0859,0.927979,0.322083,0.156311,0.103271
2026-04-22 14:33:28,-2.3359,6.0156,7.1680,0.928772,0.320679,0.154114,0.103821
2026-04-22 14:33:28,-2.1445,5.9766,7.1641,0.929565,0.319214,0.151978,0.104248
2026-04-22 14:33:28,-2.1055,6.0156,7.2773,0.930481,0.317688,0.149658,0.104553
2026-04-22 14:33:28,-2.0703,6.0898,7.3164,0.931274,0.316284,0.147278,0.104980
2026-04-22 14:33:28,-1.9531,5.9375,7.4336,0.932068,0.314819,0.144592,0.105652
2026-04-22 14:33:28,-1.9531,5.6680,7.1641,0.932922,0.313599,0.141357,0.106506
2026-04-22 14:33:28,-2.0313,5.8242,7.3164,0.933716,0.312500,0.137451,0.107849
2026-04-22 14:33:28,-1.2656,5.8242,7.6289,0.936218,0.311523,0.114807,0.115234
2026-04-22 14:33:28,-1.0742,5.8242,7.5117,0.936523,0.312561,0.106995,0.117493
2026-04-22 14:33:28,-1.2656,5.8594,7.5469,0.936707,0.313110,0.101013,0.119934
2026-04-22 14:33:28,-1.5313,5.7070,7.2383,0.936768,0.313782,0.095459,0.121826
2026-04-22 14:33:28,-1.6094,5.9766,7.5859,0.936829,0.315125,0.089111,0.122925
2026-04-22 14:33:28,-0.7656,6.0898,7.8516,0.936951,0.316223,0.084778,0.122437
2026-04-22 14:33:28,-0.4219,5.9766,7.6953,0.937012,0.316467,0.083496,0.122192
2026-04-22 14:33:28,-0.2305,5.8984,7.5898,0.937256,0.317383,0.077087,0.122070
2026-04-22 14:33:28,-0.2695,5.7461,7.5469,0.937378,0.317627,0.072266,0.123352
2026-04-22 14:33:28,-0.3438,5.6680,7.4727,0.937561,0.317566,0.066833,0.125305
2026-04-22 14:33:28,0.8047,5.5938,7.6250,0.938843,0.315979,0.031799,0.133301
2026-04-22 14:33:29,0.8047,5.7070,7.6953,0.939026,0.315063,0.029602,0.134644
2026-04-22 14:33:29,0.5742,5.8242,7.6992,0.939209,0.314026,0.028076,0.136047
2026-04-22 14:33:29,0.5742,5.6680,7.6250,0.939392,0.312866,0.026367,0.137695
2026-04-22 14:33:29,0.0391,5.6680,7.7344,0.939453,0.312561,0.025757,0.138123
2026-04-22 14:33:29,0.4219,5.5156,7.6992,0.939575,0.311890,0.024353,0.138855
2026-04-22 14:33:29,0.4961,5.4414,7.6602,0.939941,0.310608,0.021179,0.139832
2026-04-22 14:33:29,0.6914,5.4023,7.5859,0.940063,0.310242,0.019592,0.140320
2026-04-22 14:33:29,0.5352,5.5156,7.7383,0.940063,0.310059,0.018433,0.140686
2026-04-22 14:33:29,0.5742,5.5547,7.7734,0.940063,0.310059,0.017212,0.141052
2026-04-22 14:33:29,0.8828,5.6680,7.7734,0.939880,0.310547,0.008362,0.141968
2026-04-22 14:33:29,0.9180,5.5156,7.6953,0.939880,0.310791,0.005676,0.141235
2026-04-22 14:33:29,0.9180,5.5547,7.6953,0.939880,0.310974,0.004517,0.141113
2026-04-22 14:33:29,0.9180,5.5547,7.7383,0.939819,0.311096,0.003540,0.141113
2026-04-22 14:33:29,0.8828,5.5547,7.7773,0.939819,0.311218,0.002625,0.141113
2026-04-22 14:33:29,0.8828,5.5938,7.8164,0.939758,0.311279,0.002136,0.141113
2026-04-22 14:33:29,1.0352,5.5547,7.7383,0.939758,0.311401,0.001465,0.141113
2026-04-22 14:33:29,0.8438,5.5938,7.8164,0.939697,0.311646,0.000305,0.141113
2026-04-22 14:33:29,0.8828,5.5938,7.8164,0.939636,0.311768,-0.000549,0.140991
2026-04-22 14:33:29,0.9570,5.5547,7.7383,0.939636,0.311768,-0.000854,0.140930
2026-04-22 14:33:29,1.0352,5.5547,7.7383,0.939514,0.311829,-0.005737,0.141418
2026-04-22 14:33:29,1.0352,5.5156,7.7383,0.939514,0.311890,-0.005859,0.141418
2026-04-22 14:33:29,1.0742,5.5156,7.7344,0.939453,0.312073,-0.005920,0.141357
2026-04-22 14:33:29,0.9570,5.5547,7.6953,0.939453,0.312073,-0.005920,0.141357
2026-04-22 14:33:29,1.0352,5.4766,7.6992,0.939453,0.312073,-0.005981,0.141296
2026-04-22 14:33:29,1.1875,5.5547,7.7383,0.939392,0.312256,-0.006165,0.141296
2026-04-22 14:33:29,1.1094,5.5547,7.7344,0.939392,0.312256,-0.006165,0.141418
2026-04-22 14:33:29,1.1875,5.5547,7.7383,0.939392,0.312317,-0.006042,0.141541
2026-04-22 14:33:29,1.0742,5.5547,7.7344,0.939331,0.312317,-0.005676,0.141602
2026-04-22 14:33:29,0.8047,5.5938,7.7383,0.939331,0.312378,-0.005188,0.141602
2026-04-22 14:33:29,0.6133,5.5938,7.8164,0.940063,0.311584,0.005737,0.138306
2026-04-22 14:33:29,0.5742,5.5938,7.7383,0.940186,0.311401,0.006897,0.138000
2026-04-22 14:33:29,0.6133,5.5938,7.7344,0.940247,0.311340,0.007629,0.137573
2026-04-22 14:33:29,0.7656,5.5938,7.7383,0.940430,0.311157,0.008423,0.136780
2026-04-22 14:33:29,0.8438,5.5547,7.7383,0.940491,0.311035,0.008606,0.136597
2026-04-22 14:33:29,0.9570,5.6328,7.7734,0.940613,0.310791,0.009094,0.136353
2026-04-22 14:33:29,0.8047,5.6328,7.7773,0.940674,0.310425,0.009338,0.136536
2026-04-22 14:33:29,0.4961,5.5547,7.7773,0.940796,0.310059,0.009399,0.136780
2026-04-22 14:33:29,0.4609,5.5547,7.7773,0.940857,0.309753,0.009399,0.136902
2026-04-22 14:33:29,0.6133,5.5938,7.8164,0.940979,0.309509,0.009338,0.136780
2026-04-22 14:33:29,0.5742,5.5547,7.7344,0.941284,0.308655,0.009399,0.136536
2026-04-22 14:33:29,0.5742,5.5547,7.7344,0.941345,0.308533,0.008972,0.136292
2026-04-22 14:33:29,0.7656,5.5547,7.7344,0.941345,0.308472,0.008911,0.136230
2026-04-22 14:33:29,0.7656,5.5156,7.7734,0.941406,0.308533,0.008850,0.136047
2026-04-22 14:33:29,0.8047,5.4766,7.7383,0.941406,0.308533,0.008911,0.136047
2026-04-22 14:33:30,0.7266,5.5156,7.8125,0.941406,0.308533,0.008911,0.135986
2026-04-22 14:33:30,0.8047,5.5156,7.7734,0.941406,0.308533,0.008972,0.135986
2026-04-22 14:33:30,0.7266,5.4766,7.7344,0.941345,0.308655,0.009033,0.136047
2026-04-22 14:33:30,0.6914,5.5156,7.7734,0.941284,0.308777,0.009155,0.136108
2026-04-22 14:33:30,0.6523,5.4766,7.7734,0.941223,0.308899,0.009277,0.136169
2026-04-22 14:33:30,0.6523,5.5938,7.8164,0.941406,0.308594,0.011658,0.135742
2026-04-22 14:33:30,0.5352,5.4766,7.7734,0.941528,0.307983,0.011780,0.135986
2026-04-22 14:33:30,0.5742,5.6328,8.0117,0.941650,0.307617,0.011963,0.136047
2026-04-22 14:33:30,0.4961,5.5938,7.9297,0.941834,0.307068,0.012024,0.136108
2026-04-22 14:33:30,0.5742,5.4766,7.6953,0.942078,0.306396,0.011963,0.135925
2026-04-22 14:33:30,0.6133,5.5156,7.6953,0.942261,0.305908,0.012085,0.135681
2026-04-22 14:33:30,0.8047,5.4414,7.7734,0.942322,0.305847,0.012146,0.135620
2026-04-22 14:33:30,0.7656,5.4023,7.7773,0.942505,0.305359,0.013000,0.135193
2026-04-22 14:33:30,0.7266,5.3633,7.6992,0.942566,0.305176,0.013489,0.135315
2026-04-22 14:33:30,0.6914,5.3242,7.6563,0.942505,0.305115,0.013977,0.135498
2026-04-22 14:33:30,0.5742,5.5547,7.8555,0.942322,0.305664,0.014587,0.135437
2026-04-22 14:33:30,0.6523,5.5547,7.8125,0.942383,0.305908,0.015259,0.134705
2026-04-22 14:33:30,0.6914,5.5156,7.8164,0.942383,0.305908,0.015503,0.134644
2026-04-22 14:33:30,0.6914,5.5156,7.8555,0.942383,0.305786,0.015564,0.134827
2026-04-22 14:33:30,0.6133,5.5156,7.7773,0.942383,0.305725,0.015625,0.135132
2026-04-22 14:33:30,0.1523,5.6328,7.8906,0.942383,0.305664,0.015442,0.135071
2026-04-22 14:33:30,0.4219,5.5156,7.7734,0.942444,0.305603,0.015320,0.134827
2026-04-22 14:33:30,0.6914,5.5156,7.8164,0.942505,0.305481,0.015259,0.134399
2026-04-22 14:33:30,0.5352,5.4414,7.8125,0.942566,0.305420,0.015137,0.134155
2026-04-22 14:33:30,0.5742,5.4414,7.7734,0.942688,0.305359,0.015320,0.133728
2026-04-22 14:33:30,0.4219,5.4414,7.7344,0.943176,0.304871,0.015137,0.131348
2026-04-22 14:33:30,0.4609,5.5547,7.8516,0.943176,0.304932,0.015015,0.131165
2026-04-22 14:33:30,0.6133,5.5156,7.8125,0.943176,0.304932,0.014954,0.131042
2026-04-22 14:33:30,0.6133,5.5547,7.8125,0.943237,0.304932,0.014954,0.130981
2026-04-22 14:33:30,0.5352,5.5547,7.8516,0.943237,0.304871,0.014832,0.130981
2026-04-22 14:33:30,0.5352,5.5156,7.8125,0.943237,0.304810,0.014771,0.130981
2026-04-22 14:33:30,0.6133,5.4023,7.6992,0.943237,0.304810,0.014648,0.130920
2026-04-22 14:33:30,0.4609,5.5156,7.8516,0.943237,0.304810,0.014343,0.130981
2026-04-22 14:33:30,0.4609,5.5156,7.8125,0.943237,0.304871,0.014282,0.131042
2026-04-22 14:33:30,0.5742,5.5156,7.8164,0.943237,0.304871,0.014221,0.130981
2026-04-22 14:33:30,0.6133,5.4023,7.7734,0.943604,0.304138,0.014038,0.130066
2026-04-22 14:33:30,0.5352,5.5156,7.8125,0.943542,0.304260,0.014404,0.130188
2026-04-22 14:33:30,0.5352,5.5547,7.8516,0.943481,0.304382,0.014832,0.130249
2026-04-22 14:33:30,0.4609,5.6328,7.8555,0.943420,0.304626,0.015564,0.130188
2026-04-22 14:33:30,0.2695,5.5156,7.8125,0.943420,0.304626,0.015686,0.130127
2026-04-22 14:33:30,0.4609,5.5547,7.8125,0.943420,0.304688,0.015686,0.130005
2026-04-22 14:33:30,0.3828,5.4023,7.6992,0.943420,0.304749,0.015564,0.129700
2026-04-22 14:33:30,0.5742,5.4414,7.8164,0.943359,0.304932,0.015381,0.129639
2026-04-22 14:33:31,0.6523,5.4414,7.7773,0.943298,0.305115,0.015320,0.129700
2026-04-22 14:33:31,0.7656,5.4766,7.8516,0.943237,0.305237,0.015503,0.129883
2026-04-22 14:33:31,0.5742,5.6680,7.9336,0.942871,0.306641,0.015137,0.129211
2026-04-22 14:33:31,0.4219,5.6680,7.8945,0.942932,0.306396,0.015686,0.129578
2026-04-22 14:33:31,0.4219,5.6328,7.8945,0.942993,0.306213,0.015930,0.129456
2026-04-22 14:33:31,0.4961,5.5547,7.7773,0.943054,0.306091,0.015991,0.129395
2026-04-22 14:33:31,0.5352,5.4023,7.6289,0.943176,0.305725,0.016357,0.129028
2026-04-22 14:33:31,0.5742,5.4414,7.6992,0.943237,0.305603,0.016479,0.128967
2026-04-22 14:33:31,0.6133,5.4766,7.7344,0.943298,0.305481,0.016663,0.128967
2026-04-22 14:33:31,0.4961,5.5156,7.8125,0.943298,0.305359,0.017273,0.129089
2026-04-22 14:33:31,0.5352,5.5547,7.8125,0.943298,0.305298,0.017700,0.129333
2026-04-22 14:33:31,0.5742,5.5547,7.7734,0.943237,0.305176,0.018005,0.129578
2026-04-22 14:33:31,0.4219,5.5547,7.8555,0.943542,0.304077,0.018372,0.130005
2026-04-22 14:33:31,0.5742,5.5547,7.7734,0.943604,0.304016,0.018372,0.129944
2026-04-22 14:33:31,0.5742,5.5547,7.8555,0.943665,0.303711,0.018677,0.130066
2026-04-22 14:33:31,0.5742,5.5156,7.8906,0.943726,0.303467,0.019104,0.130310
2026-04-22 14:33:31,0.6133,5.4766,7.8164,0.943726,0.303284,0.019592,0.130432
2026-04-22 14:33:31,0.4961,5.3242,7.7383,0.943726,0.303223,0.020203,0.130615
2026-04-22 14:33:31,0.4609,5.4023,7.8164,0.943665,0.303223,0.020447,0.130737
2026-04-22 14:33:31,0.2695,5.5156,7.8516,0.943542,0.303406,0.021240,0.131042
2026-04-22 14:33:31,0.3828,5.5547,7.8125,0.943481,0.303589,0.021729,0.131104
2026-04-22 14:33:31,0.2695,5.6328,7.8555,0.943481,0.303589,0.022156,0.131104
2026-04-22 14:33:31,0.3438,5.5156,7.8516,0.943848,0.302368,0.023499,0.131226
2026-04-22 14:33:31,0.4609,5.6680,8.1211,0.943970,0.301880,0.023987,0.131226
2026-04-22 14:33:31,0.6133,5.7461,8.2383,0.944153,0.301147,0.024231,0.131348
2026-04-22 14:33:31,0.0781,5.4766,7.5898,0.944519,0.299988,0.024719,0.131531
2026-04-22 14:33:31,0.4219,5.4766,7.5859,0.944885,0.298645,0.025818,0.131470
2026-04-22 14:33:31,0.6133,5.6328,8.0078,0.945251,0.297363,0.026794,0.131775
2026-04-22 14:33:31,0.4609,5.6680,8.0820,0.945618,0.295776,0.027527,0.132385
2026-04-22 14:33:31,0.5352,5.5547,8.1172,0.946045,0.294006,0.028198,0.133240
2026-04-22 14:33:31,0.5352,5.4766,8.1602,0.946594,0.291687,0.028748,0.134399
2026-04-22 14:33:31,0.3047,5.6328,8.1563,0.947266,0.288879,0.029602,0.135437
2026-04-22 14:33:31,0.1133,5.0195,8.6953,0.958557,0.246216,0.039917,0.137573
2026-04-22 14:33:31,-0.1914,4.7500,8.5781,0.959656,0.241211,0.041138,0.138611
2026-04-22 14:33:31,-0.5742,4.5977,8.3945,0.960632,0.236511,0.042480,0.139526
2026-04-22 14:33:31,-0.7656,4.4805,8.3945,0.961670,0.231812,0.043884,0.139893
2026-04-22 14:33:31,-0.2305,4.4805,8.8125,0.962646,0.227295,0.045166,0.140015
2026-04-22 14:33:31,-0.1133,4.3281,8.7383,0.963745,0.222290,0.046814,0.139893
2026-04-22 14:33:31,-0.6914,4.3281,8.3906,0.964844,0.217407,0.048401,0.139465
2026-04-22 14:33:31,0.0391,4.4063,9.4219,0.965271,0.215454,0.049011,0.139221
2026-04-22 14:33:31,0.4609,3.8672,8.8867,0.966187,0.211304,0.050171,0.138794
2026-04-22 14:33:31,-0.6914,3.8672,8.5000,0.968079,0.201965,0.052368,0.138855
2026-04-22 14:33:32,-0.9961,2.6445,8.8438,0.976013,0.152405,0.068909,0.139221
2026-04-22 14:33:32,-0.8047,2.8711,9.8047,0.977234,0.144104,0.071777,0.138367
2026-04-22 14:33:32,-1.2656,2.7188,9.3047,0.977905,0.138855,0.072876,0.138062
2026-04-22 14:33:32,-0.7266,2.4883,9.3438,0.978882,0.132507,0.072937,0.137634
2026-04-22 14:33:32,-0.9180,2.4531,9.3828,0.979797,0.125977,0.072571,0.137451
2026-04-22 14:33:32,-0.5742,2.3359,9.3047,0.979858,0.125427,0.072510,0.137451
2026-04-22 14:33:32,-0.9570,1.1875,8.8477,0.981384,0.113220,0.072021,0.137207
2026-04-22 14:33:32,-0.4609,1.8398,8.1953,0.982849,0.103943,0.071167,0.134460
2026-04-22 14:33:32,-0.9570,1.9531,9.0000,0.983826,0.096558,0.070618,0.133179
2026-04-22 14:33:32,-0.8828,1.4570,8.7383,0.984314,0.091553,0.070129,0.133606
2026-04-22 14:33:32,-0.6523,0.9570,9.8047,0.986877,0.058533,0.063354,0.136475
2026-04-22 14:33:32,-0.9570,1.1094,9.8086,0.987183,0.051819,0.061951,0.137634
2026-04-22 14:33:32,-0.6523,1.0742,9.6875,0.987366,0.047424,0.061096,0.138184
2026-04-22 14:33:32,-1.1484,0.7266,9.5000,0.987610,0.043030,0.060547,0.138428
2026-04-22 14:33:32,-1.2656,0.8047,9.5820,0.987671,0.039490,0.060608,0.138611
2026-04-22 14:33:32,-1.3398,0.8438,10.0313,0.987793,0.036194,0.060791,0.138855
2026-04-22 14:33:32,-0.9961,0.6523,10.0039,0.987915,0.032776,0.060791,0.138733
2026-04-22 14:33:32,-0.9570,0.5352,9.6094,0.988037,0.029419,0.060669,0.138611
2026-04-22 14:33:32,-0.7266,0.2695,9.1211,0.988098,0.025940,0.060486,0.138977
2026-04-22 14:33:32,-0.7266,0.3047,9.2266,0.988098,0.021912,0.060242,0.139832
2026-04-22 14:33:32,-1.7617,-0.1914,9.9609,0.986755,-0.011292,0.060791,0.150146
2026-04-22 14:33:32,-1.4570,-0.4219,10.0703,0.986755,-0.014648,0.059631,0.150269
2026-04-22 14:33:32,-1.4570,-0.2695,10.1484,0.986755,-0.016357,0.057800,0.150696
2026-04-22 14:33:32,-1.4180,-0.3828,9.8477,0.986877,-0.017517,0.055420,0.150574
2026-04-22 14:33:32,-1.3008,-0.4609,9.1172,0.987122,-0.018372,0.053162,0.149841
2026-04-22 14:33:32,-0.3828,-0.4609,9.2656,0.987427,-0.018799,0.051392,0.148376
2026-04-22 14:33:32,-0.7266,-0.3828,9.1211,0.987671,-0.019104,0.049561,0.147278
2026-04-22 14:33:32,-0.4219,-0.3828,9.2695,0.987732,-0.019409,0.048096,0.147156
2026-04-22 14:33:32,0.2305,-0.4609,9.6133,0.987671,-0.020020,0.046814,0.147827
2026-04-22 14:33:32,-0.5742,-0.4609,9.4609,0.987671,-0.020264,0.046509,0.148132
2026-04-22 14:33:32,-0.9570,-0.3828,9.3047,0.986023,-0.022095,0.040405,0.160217
2026-04-22 14:33:32,-0.8047,-0.5352,8.9609,0.985779,-0.021545,0.039917,0.161743
2026-04-22 14:33:32,-0.7656,-0.4961,9.3086,0.985535,-0.021118,0.039612,0.163269
2026-04-22 14:33:32,-0.9570,-0.2305,9.3086,0.985352,-0.020691,0.039001,0.164612
2026-04-22 14:33:32,-1.1484,-0.2695,9.3086,0.985291,-0.020264,0.038147,0.165466
2026-04-22 14:33:32,-1.3398,-0.2695,9.6914,0.985229,-0.019714,0.037109,0.165955
2026-04-22 14:33:32,-1.1094,-0.1523,10.1875,0.985352,-0.018982,0.035767,0.165649
2026-04-22 14:33:32,-0.9180,-0.1914,10.0000,0.985535,-0.018372,0.034241,0.164856
2026-04-22 14:33:32,-0.7266,-0.1523,9.9648,0.985779,-0.017761,0.032593,0.164062
2026-04-22 14:33:32,0.0781,-0.3047,9.3828,0.985840,-0.017212,0.031250,0.163757
2026-04-22 14:33:33,-0.4961,-0.1914,9.9258,0.984802,-0.018372,0.032471,0.169556
2026-04-22 14:33:33,-1.1094,-0.3828,9.7695,0.984436,-0.019653,0.034424,0.171143
2026-04-22 14:33:33,-1.2656,-0.3828,9.8086,0.984253,-0.019775,0.035461,0.171875
2026-04-22 14:33:33,-1.2656,-0.3047,9.5820,0.984131,-0.019348,0.035828,0.172668
2026-04-22 14:33:33,-1.1484,-0.3047,9.6484,0.984131,-0.019165,0.035645,0.172729
2026-04-22 14:33:33,-1.0742,-0.1133,9.8438,0.984192,-0.019104,0.035400,0.172668
2026-04-22 14:33:33,-0.4609,-0.3828,9.2656,0.984375,-0.018921,0.034180,0.171875
2026-04-22 14:33:33,-0.4609,-0.3438,9.5039,0.984436,-0.018860,0.033691,0.171509
2026-04-22 14:33:33,-0.6523,-0.3438,9.4648,0.984436,-0.018860,0.033569,0.171387
2026-04-22 14:33:33,-0.7656,-0.2695,9.9609,0.984497,-0.018860,0.033508,0.171265
2026-04-22 14:33:33,-0.7266,-0.3438,9.4648,0.984619,-0.015442,0.027832,0.171875
2026-04-22 14:33:33,-1.0742,-0.1133,10.2695,0.984497,-0.012878,0.025269,0.173157
2026-04-22 14:33:33,-0.1914,0.0781,10.6523,0.984619,-0.011475,0.023560,0.172607
2026-04-22 14:33:33,0.1914,-0.0781,10.3438,0.984863,-0.010559,0.021912,0.171692
2026-04-22 14:33:33,0.4219,-0.0781,9.9609,0.984985,-0.010254,0.021301,0.171143
2026-04-22 14:33:33,0.1133,-0.1914,9.3086,0.984985,-0.010315,0.021729,0.171021
2026-04-22 14:33:33,-0.3438,-0.1914,9.2695,0.984802,-0.010742,0.022461,0.171814
2026-04-22 14:33:33,-0.8828,-0.1523,9.5820,0.984680,-0.011230,0.022644,0.172668
2026-04-22 14:33:33,-0.6523,-0.1914,9.7266,0.984558,-0.011475,0.022522,0.173096
2026-04-22 14:33:33,-0.7266,-0.2305,9.8438,0.984558,-0.011475,0.022400,0.173096
2026-04-22 14:33:33,-0.6914,-0.1523,9.9258,0.984131,-0.011841,0.023560,0.175537
2026-04-22 14:33:33,-0.6523,-0.1914,9.7695,0.984070,-0.011841,0.023682,0.175842
2026-04-22 14:33:33,-0.4609,-0.1914,9.5781,0.984070,-0.011719,0.023682,0.175903
2026-04-22 14:33:33,-0.5352,-0.1523,9.6094,0.984009,-0.011658,0.023682,0.176086
2026-04-22 14:33:33,-0.4609,-0.1523,9.7305,0.984009,-0.011536,0.023682,0.176270
2026-04-22 14:33:33,-0.4609,-0.1523,9.8477,0.983948,-0.011536,0.023743,0.176392
2026-04-22 14:33:33,-0.4609,-0.1133,9.9648,0.983948,-0.011475,0.023987,0.176453
2026-04-22 14:33:33,-0.4609,-0.1133,9.9648,0.983948,-0.011475,0.024048,0.176453
2026-04-22 14:33:33,-0.5352,-0.1914,9.7266,0.983948,-0.011536,0.024048,0.176453
2026-04-22 14:33:33,-0.4219,-0.2695,9.3828,0.983948,-0.011475,0.023743,0.176453
2026-04-22 14:33:33,-0.3828,-0.1523,9.6094,0.983582,-0.008911,0.023193,0.178772
2026-04-22 14:33:33,-0.4961,-0.1914,9.6133,0.983582,-0.008850,0.023315,0.178833
2026-04-22 14:33:33,-0.5352,-0.1133,9.8867,0.983459,-0.008728,0.023926,0.179382
2026-04-22 14:33:33,-0.6133,-0.0781,9.9219,0.983398,-0.008606,0.024292,0.179565
2026-04-22 14:33:33,-0.4961,-0.0781,9.8867,0.983398,-0.008606,0.024658,0.179565
2026-04-22 14:33:33,-0.3438,-0.0781,9.8867,0.983398,-0.008545,0.025024,0.179504
2026-04-22 14:33:33,-0.3828,-0.1523,9.6484,0.983398,-0.008606,0.025146,0.179565
2026-04-22 14:33:33,-0.4609,-0.1523,9.5039,0.983337,-0.008667,0.025269,0.179810
2026-04-22 14:33:33,-0.5352,-0.1523,9.6094,0.983276,-0.008728,0.025452,0.180237
2026-04-22 14:33:33,-0.5742,-0.1133,9.6875,0.983154,-0.008728,0.025574,0.180664
2026-04-22 14:33:34,-0.6523,-0.1133,9.7305,0.983154,-0.008972,0.023804,0.180847
2026-04-22 14:33:34,-0.4609,-0.1914,9.5391,0.983154,-0.008972,0.023499,0.180847
2026-04-22 14:33:34,-0.4609,-0.1133,9.7305,0.983154,-0.008972,0.023315,0.180908
2026-04-22 14:33:34,-0.4219,-0.1133,9.8086,0.983154,-0.008972,0.023193,0.180969
2026-04-22 14:33:34,-0.4609,-0.0781,9.6484,0.983154,-0.008972,0.023132,0.181030
2026-04-22 14:33:34,-0.3828,-0.1133,9.8477,0.983093,-0.009033,0.023010,0.181519
2026-04-22 14:33:34,-0.4609,-0.0781,9.8047,0.983032,-0.009155,0.022949,0.181763
2026-04-22 14:33:34,-0.2695,-0.1133,9.8477,0.983032,-0.009460,0.023193,0.181763
2026-04-22 14:33:34,-0.3828,-0.1133,9.7656,0.983032,-0.009827,0.023621,0.181702
2026-04-22 14:33:34,-0.4219,-0.1914,9.6484,0.983032,-0.010193,0.024170,0.181580
