Timestamp,ax,ay,az,qr,qi,qj,qk
2026-05-01 15:23:59,0.1914,-1.0352,9.7695,0.998596,-0.052551,-0.010010,0.000549
2026-05-01 15:23:59,0.1914,-1.0352,9.7266,0.998596,-0.052551,-0.010010,0.000427
2026-05-01 15:23:59,0.1914,-1.0352,9.7266,0.998596,-0.052612,-0.008545,0.000610
2026-05-01 15:23:59,0.1914,-0.9961,9.7266,0.998596,-0.052612,-0.008545,0.000610
2026-05-01 15:23:59,0.1523,-1.0352,9.7656,0.998596,-0.052612,-0.008545,0.000610
2026-05-01 15:23:59,0.1523,-1.0352,9.7305,0.998596,-0.052612,-0.008545,0.000610
2026-05-01 15:23:59,0.1523,-0.9961,9.7305,0.998596,-0.052612,-0.008545,0.000610
2026-05-01 15:23:59,0.1523,-1.0352,9.7656,0.998596,-0.052612,-0.008545,0.000610
2026-05-01 15:23:59,0.1914,-1.0352,9.7695,0.998596,-0.052612,-0.008545,0.000610
2026-05-01 15:23:59,0.1523,-1.0352,9.7305,0.998596,-0.052612,-0.008545,0.000610
2026-05-01 15:23:59,0.1914,-1.0352,9.7695,0.998596,-0.052612,-0.008545,0.000610
2026-05-01 15:23:59,0.1914,-1.0352,9.7695,0.998596,-0.052612,-0.008545,0.000610
2026-05-01 15:23:59,0.1523,-1.0352,9.7305,0.998596,-0.052612,-0.008545,0.000610
2026-05-01 15:23:59,0.1914,-1.0352,9.7695,0.998596,-0.052612,-0.008484,0.000610
2026-05-01 15:23:59,0.1523,-1.0352,9.7656,0.998596,-0.052612,-0.008484,0.000610
2026-05-01 15:23:59,0.1914,-1.0352,9.7695,0.998596,-0.052612,-0.008484,0.000610
2026-05-01 15:23:59,0.1523,-1.0352,9.7656,0.998596,-0.052612,-0.008484,0.000610
2026-05-01 15:23:59,0.1523,-1.0742,9.7695,0.998596,-0.052612,-0.008484,0.000610
2026-05-01 15:23:59,0.1523,-1.0352,9.7305,0.998596,-0.052612,-0.008484,0.000610
2026-05-01 15:23:59,0.1914,-1.0352,9.7695,0.998596,-0.052612,-0.008484,0.000610
2026-05-01 15:23:59,0.1914,-1.0352,9.7266,0.998596,-0.052612,-0.008484,0.000610
2026-05-01 15:23:59,0.1914,-1.0352,9.7695,0.998596,-0.052612,-0.008484,0.000610
2026-05-01 15:23:59,0.1914,-1.0352,9.7695,0.998596,-0.052612,-0.008484,0.000610
2026-05-01 15:23:59,0.1914,-1.0352,9.7695,0.998596,-0.052612,-0.008484,0.000610
2026-05-01 15:23:59,0.1914,-0.9961,9.7695,0.998596,-0.052612,-0.008484,0.000610
2026-05-01 15:23:59,0.1523,-1.0742,9.7695,0.998596,-0.052612,-0.008484,0.000610
2026-05-01 15:23:59,0.1523,-1.0352,9.7305,0.998596,-0.052612,-0.008545,0.000610
2026-05-01 15:23:59,0.1523,-1.0352,9.7305,0.998596,-0.052612,-0.008545,0.000610
2026-05-01 15:23:59,0.1523,-1.0742,9.7695,0.998596,-0.052612,-0.008545,0.000610
2026-05-01 15:23:59,0.1523,-1.0352,9.7656,0.998596,-0.052612,-0.008545,0.000610
2026-05-01 15:24:00,0.1914,-1.0352,9.7695,0.998596,-0.052612,-0.008545,0.000610
2026-05-01 15:24:00,0.1914,-1.0352,9.7695,0.998596,-0.052612,-0.008545,0.000610
2026-05-01 15:24:00,0.1914,-1.0352,9.7695,0.998596,-0.052612,-0.008545,0.000610
2026-05-01 15:24:00,0.1133,-1.0352,9.7305,0.998596,-0.052612,-0.008545,0.000610
2026-05-01 15:24:00,0.1523,-1.0352,9.7656,0.998596,-0.052612,-0.008545,0.000610
2026-05-01 15:24:00,0.1523,-0.9961,9.7656,0.998596,-0.052612,-0.008545,0.000610
2026-05-01 15:24:00,0.1523,-1.0352,9.7305,0.998596,-0.052612,-0.008545,0.000610
2026-05-01 15:24:00,0.1523,-1.0352,9.7305,0.998596,-0.052612,-0.008545,0.000610
2026-05-01 15:24:00,0.1523,-1.0352,9.7656,0.998596,-0.052612,-0.008545,0.000610
2026-05-01 15:24:00,0.1523,-1.0352,9.7656,0.998596,-0.052612,-0.008545,0.000610
2026-05-01 15:24:00,0.1523,-1.0352,9.7656,0.998596,-0.052612,-0.008606,0.000610
2026-05-01 15:24:00,0.1523,-1.0352,9.7305,0.998596,-0.052612,-0.008606,0.000610
2026-05-01 15:24:00,0.1523,-1.0352,9.7656,0.998596,-0.052612,-0.008606,0.000610
2026-05-01 15:24:00,0.1523,-1.0742,9.7266,0.998596,-0.052612,-0.008606,0.000610
2026-05-01 15:24:00,0.1523,-1.0352,9.7656,0.998596,-0.052612,-0.008606,0.000610
2026-05-01 15:24:00,0.1523,-1.0352,9.7656,0.998596,-0.052612,-0.008606,0.000610
2026-05-01 15:24:00,0.1523,-1.0352,9.7305,0.998596,-0.052612,-0.008606,0.000610
2026-05-01 15:24:00,0.1914,-1.0352,9.7266,0.998596,-0.052612,-0.008606,0.000610
2026-05-01 15:24:00,0.1523,-0.9961,9.7305,0.998596,-0.052612,-0.008606,0.000610
2026-05-01 15:24:00,0.1914,-1.0352,9.7266,0.998596,-0.052612,-0.008606,0.000610
2026-05-01 15:24:00,0.1523,-1.0352,9.7305,0.998596,-0.052612,-0.008606,0.000610
2026-05-01 15:24:00,0.1914,-1.0352,9.7695,0.998596,-0.052612,-0.008606,0.000610
2026-05-01 15:24:00,0.1523,-1.0352,9.7656,0.998596,-0.052612,-0.008606,0.000610
2026-05-01 15:24:00,0.1523,-1.0352,9.7305,0.998596,-0.052612,-0.008606,0.000610
2026-05-01 15:24:00,0.1523,-1.0352,9.7656,0.998596,-0.052612,-0.008606,0.000610
2026-05-01 15:24:00,0.1914,-1.0352,9.7695,0.998596,-0.052612,-0.008606,0.000610
2026-05-01 15:24:00,0.1914,-1.0352,9.7695,0.998596,-0.052612,-0.008606,0.000610
2026-05-01 15:24:00,0.1914,-1.0352,9.7695,0.998596,-0.052612,-0.008606,0.000610
2026-05-01 15:24:00,0.1523,-1.0352,9.7656,0.998596,-0.052612,-0.008606,0.000610
2026-05-01 15:24:00,0.1523,-1.0352,9.7305,0.998596,-0.052612,-0.008606,0.000610
2026-05-01 15:24:00,0.1523,-1.0352,9.7656,0.998596,-0.052612,-0.008545,0.000610
2026-05-01 15:24:00,0.1914,-1.0352,9.7266,0.998596,-0.052612,-0.008545,0.000610
2026-05-01 15:24:00,0.1523,-1.0352,9.7305,0.998596,-0.052612,-0.008545,0.000610
2026-05-01 15:24:00,0.1523,-1.0352,9.7305,0.998596,-0.052612,-0.008545,0.000610
2026-05-01 15:24:00,0.1523,-1.0352,9.7656,0.998596,-0.052612,-0.008545,0.000610
2026-05-01 15:24:00,0.1523,-1.0352,9.7656,0.998596,-0.052612,-0.008545,0.000610
2026-05-01 15:24:00,0.1914,-1.0352,9.7695,0.998596,-0.052673,-0.008545,0.000610
2026-05-01 15:24:00,0.1523,-0.9961,9.7656,0.998596,-0.052673,-0.008606,0.000610
2026-05-01 15:24:00,0.1523,-1.0352,9.7305,0.998596,-0.052673,-0.008606,0.000610
2026-05-01 15:24:00,0.1523,-0.9961,9.7656,0.998596,-0.052673,-0.008606,0.000610
2026-05-01 15:24:00,0.1523,-1.0352,9.7656,0.998596,-0.052673,-0.008606,0.000610
2026-05-01 15:24:00,0.1523,-1.0352,9.7305,0.998596,-0.052673,-0.008606,0.000610
2026-05-01 15:24:00,0.1523,-1.0352,9.7305,0.998596,-0.052673,-0.008606,0.000610
2026-05-01 15:24:00,0.1523,-1.0352,9.7656,0.998596,-0.052673,-0.008606,0.000610
2026-05-01 15:24:00,0.1523,-1.0352,9.7656,0.998596,-0.052673,-0.008606,0.000610
2026-05-01 15:24:00,0.1914,-1.0352,9.7695,0.998596,-0.052673,-0.008606,0.000610
2026-05-01 15:24:00,0.1914,-1.0352,9.7266,0.998596,-0.052673,-0.008606,0.000610
2026-05-01 15:24:00,0.1914,-1.0352,9.7266,0.998596,-0.052673,-0.008606,0.000610
2026-05-01 15:24:00,0.1914,-1.0742,9.7305,0.998596,-0.052673,-0.008606,0.000610
2026-05-01 15:24:00,0.1523,-1.0352,9.7305,0.998596,-0.052673,-0.008606,0.000610
2026-05-01 15:24:01,0.1914,-1.0352,9.7266,0.998596,-0.052673,-0.008606,0.000610
2026-05-01 15:24:01,0.1523,-1.0352,9.7305,0.998596,-0.052673,-0.008606,0.000610
2026-05-01 15:24:01,0.1523,-1.0352,9.7656,0.998596,-0.052673,-0.008606,0.000610
2026-05-01 15:24:01,0.1914,-1.0352,9.7266,0.998596,-0.052673,-0.008606,0.000610
2026-05-01 15:24:01,0.1523,-1.0352,9.7305,0.998596,-0.052673,-0.008606,0.000610
2026-05-01 15:24:01,0.1523,-1.0352,9.7305,0.998596,-0.052673,-0.008545,0.000610
2026-05-01 15:24:01,0.1523,-1.0352,9.7305,0.998596,-0.052673,-0.008606,0.000610
2026-05-01 15:24:01,0.1914,-1.0352,9.7695,0.998596,-0.052673,-0.008606,0.000610
2026-05-01 15:24:01,0.1523,-1.0742,9.7266,0.998596,-0.052673,-0.008606,0.000610
2026-05-01 15:24:01,0.1914,-1.0352,9.7695,0.998596,-0.052673,-0.008606,0.000610
2026-05-01 15:24:01,0.1523,-1.0352,9.7656,0.998596,-0.052673,-0.008606,0.000610
2026-05-01 15:24:01,0.1523,-1.0352,9.7656,0.998596,-0.052673,-0.008606,0.000610
2026-05-01 15:24:01,0.1523,-1.0352,9.7305,0.998596,-0.052673,-0.008606,0.000610
2026-05-01 15:24:01,0.1523,-1.0352,9.7305,0.998596,-0.052673,-0.008606,0.000610
2026-05-01 15:24:01,0.1523,-1.0352,9.7656,0.998596,-0.052673,-0.008606,0.000610
2026-05-01 15:24:01,0.1523,-0.9961,9.7656,0.998596,-0.052673,-0.008606,0.000610
2026-05-01 15:24:01,0.1523,-1.0352,9.8047,0.998596,-0.052673,-0.008606,0.000610
2026-05-01 15:24:01,0.1914,-1.0352,9.6875,0.998596,-0.052673,-0.008606,0.000610
2026-05-01 15:24:01,0.1914,-1.0352,9.7695,0.998596,-0.052673,-0.008606,0.000610
2026-05-01 15:24:01,0.1914,-1.0352,9.7695,0.998596,-0.052673,-0.008606,0.000610
2026-05-01 15:24:01,0.1523,-1.0352,9.7305,0.998596,-0.052673,-0.008606,0.000610
2026-05-01 15:24:01,0.1523,-1.0742,9.8086,0.998596,-0.052673,-0.008606,0.000610
2026-05-01 15:24:01,0.1914,-1.0352,9.7266,0.998596,-0.052673,-0.008606,0.000610
2026-05-01 15:24:01,0.1523,-1.0352,9.7305,0.998596,-0.052673,-0.008606,0.000610
2026-05-01 15:24:01,0.1523,-1.0352,9.7305,0.998596,-0.052673,-0.008606,0.000610
2026-05-01 15:24:01,0.1523,-1.0352,9.7305,0.998596,-0.052673,-0.008606,0.000610
2026-05-01 15:24:01,0.1523,-1.0352,9.7305,0.998596,-0.052673,-0.008606,0.000610
2026-05-01 15:24:01,0.1523,-1.0742,9.7266,0.998596,-0.052673,-0.008606,0.000610
2026-05-01 15:24:01,0.1523,-1.0352,9.7656,0.998596,-0.052673,-0.008606,0.000610
2026-05-01 15:24:01,0.1523,-1.0352,9.7656,0.998596,-0.052673,-0.008606,0.000610
2026-05-01 15:24:01,0.1523,-1.0352,9.7656,0.998596,-0.052734,-0.008606,0.000671
2026-05-01 15:24:01,0.1523,-0.9961,9.7305,0.998596,-0.052734,-0.008606,0.000610
2026-05-01 15:24:01,0.1914,-1.0742,9.7305,0.998596,-0.052734,-0.008606,0.000610
2026-05-01 15:24:01,0.1523,-1.0352,9.7656,0.998596,-0.052673,-0.008606,0.000610
2026-05-01 15:24:01,0.1523,-1.0352,9.7656,0.998596,-0.052734,-0.008606,0.000610
2026-05-01 15:24:01,0.1523,-0.9961,9.7656,0.998596,-0.052734,-0.008606,0.000610
2026-05-01 15:24:01,0.1914,-1.0352,9.7695,0.998596,-0.052734,-0.008545,0.000610
2026-05-01 15:24:01,0.1914,-1.0352,9.7695,0.998596,-0.052673,-0.008606,0.000549
2026-05-01 15:24:01,0.1914,-1.0352,9.7695,0.998596,-0.052673,-0.008606,0.000549
2026-05-01 15:24:01,0.1523,-1.0352,9.7656,0.998596,-0.052673,-0.008606,0.000549
2026-05-01 15:24:01,0.1523,-1.0352,9.7656,0.998596,-0.052673,-0.008606,0.000610
2026-05-01 15:24:01,0.1523,-1.0352,9.7305,0.998596,-0.052673,-0.008545,0.000610
2026-05-01 15:24:01,0.1523,-1.0352,9.7656,0.998596,-0.052673,-0.008545,0.000610
2026-05-01 15:24:01,0.1523,-1.0352,9.7656,0.998596,-0.052612,-0.008606,0.000671
2026-05-01 15:24:01,0.1523,-1.0352,9.7656,0.998596,-0.052612,-0.008606,0.000671
2026-05-01 15:24:01,0.1523,-1.0352,9.7656,0.998596,-0.052673,-0.008606,0.000671
2026-05-01 15:24:01,0.1523,-1.0352,9.7656,0.998596,-0.052673,-0.008606,0.000671
2026-05-01 15:24:01,0.1523,-0.9961,9.7656,0.998596,-0.052673,-0.008606,0.000610
2026-05-01 15:24:02,0.1914,-1.0352,9.7266,0.998596,-0.052734,-0.008606,0.000610
2026-05-01 15:24:02,0.1523,-1.0352,9.7305,0.998596,-0.052734,-0.008606,0.000610
2026-05-01 15:24:02,0.1914,-1.0352,9.7266,0.998596,-0.052734,-0.008606,0.000610
2026-05-01 15:24:02,0.1523,-1.0352,9.7656,0.998596,-0.052734,-0.008606,0.000610
2026-05-01 15:24:02,0.1523,-1.0352,9.7656,0.998596,-0.052734,-0.008606,0.000610
2026-05-01 15:24:02,0.1523,-1.0352,9.7305,0.998596,-0.052734,-0.008606,0.000671
2026-05-01 15:24:02,0.1914,-1.0352,9.7695,0.998596,-0.052734,-0.008606,0.000671
2026-05-01 15:24:02,0.1523,-1.0352,9.7656,0.998596,-0.052673,-0.008606,0.000671
2026-05-01 15:24:02,0.1523,-1.0742,9.7266,0.998596,-0.052673,-0.008606,0.000671
2026-05-01 15:24:02,0.1523,-1.0352,9.7656,0.998596,-0.052612,-0.008606,0.000671
2026-05-01 15:24:02,0.1523,-1.0352,9.7656,0.998596,-0.052612,-0.008606,0.000671
2026-05-01 15:24:02,0.1523,-1.0352,9.7305,0.998596,-0.052612,-0.008606,0.000671
2026-05-01 15:24:02,0.1523,-1.0352,9.7656,0.998596,-0.052490,-0.008545,0.000610
2026-05-01 15:24:02,0.1523,-1.0352,9.7656,0.998596,-0.052490,-0.008545,0.000610
2026-05-01 15:24:02,0.1914,-1.0352,9.7695,0.998596,-0.052490,-0.008545,0.000610
2026-05-01 15:24:02,0.1523,-1.0742,9.7695,0.998596,-0.052490,-0.008545,0.000610
2026-05-01 15:24:02,0.1523,-1.0352,9.7656,0.998596,-0.052490,-0.008545,0.000610
2026-05-01 15:24:02,0.1523,-1.0352,9.7305,0.998596,-0.052490,-0.008545,0.000610
2026-05-01 15:24:02,0.1523,-1.0352,9.7656,0.998596,-0.052490,-0.008545,0.000610
2026-05-01 15:24:02,0.1523,-1.0352,9.8047,0.998596,-0.052490,-0.008545,0.000549
2026-05-01 15:24:02,0.1914,-1.0352,9.7695,0.998596,-0.052429,-0.008545,0.000549
2026-05-01 15:24:02,0.1914,-1.0352,9.7695,0.998596,-0.052429,-0.008484,0.000549
2026-05-01 15:24:02,0.1914,-1.0352,9.7266,0.998596,-0.052490,-0.008484,0.000610
2026-05-01 15:24:02,0.1523,-1.0352,9.7656,0.998596,-0.052490,-0.008484,0.000610
2026-05-01 15:24:02,0.1523,-1.0742,9.7266,0.998596,-0.052490,-0.008484,0.000610
2026-05-01 15:24:02,0.1523,-1.0352,9.7656,0.998596,-0.052490,-0.008484,0.000610
2026-05-01 15:24:02,0.1523,-0.9961,9.7656,0.998596,-0.052490,-0.008484,0.000610
2026-05-01 15:24:02,0.1523,-0.9961,9.7305,0.998596,-0.052490,-0.008484,0.000610
2026-05-01 15:24:02,0.1914,-1.0352,9.7695,0.998596,-0.052490,-0.008484,0.000610
2026-05-01 15:24:02,0.1914,-1.0352,9.7266,0.998596,-0.052490,-0.008484,0.000610
2026-05-01 15:24:02,0.1914,-1.0352,9.7266,0.998596,-0.052490,-0.008545,0.000610
2026-05-01 15:24:02,0.1914,-1.0352,9.7695,0.998596,-0.052490,-0.008545,0.000610
2026-05-01 15:24:02,0.1523,-1.0352,9.7656,0.998596,-0.052429,-0.008545,0.000610
2026-05-01 15:24:02,0.1914,-1.0352,9.7266,0.998596,-0.052429,-0.008545,0.000610
2026-05-01 15:24:02,0.1914,-1.0352,9.7695,0.998596,-0.052429,-0.008545,0.000610
2026-05-01 15:24:02,0.1523,-1.0352,9.7656,0.998596,-0.052429,-0.008545,0.000610
2026-05-01 15:24:02,0.1914,-1.0352,9.7266,0.998596,-0.052429,-0.008545,0.000610
2026-05-01 15:24:02,0.1523,-1.0352,9.7305,0.998596,-0.052429,-0.008545,0.000610
2026-05-01 15:24:02,0.1523,-1.0352,9.7656,0.998596,-0.052429,-0.008545,0.000610
2026-05-01 15:24:02,0.1523,-1.0352,9.7305,0.998596,-0.052429,-0.008545,0.000610
2026-05-01 15:24:02,0.1523,-0.9961,9.7656,0.998596,-0.052429,-0.008545,0.000610
2026-05-01 15:24:02,0.1523,-1.0352,9.7656,0.998596,-0.052429,-0.008606,0.000610
2026-05-01 15:24:02,0.1914,-1.0352,9.7695,0.998596,-0.052429,-0.008606,0.000610
2026-05-01 15:24:02,0.1523,-1.0352,9.7656,0.998596,-0.052429,-0.008606,0.000610
2026-05-01 15:24:02,0.1914,-0.9961,9.7695,0.998596,-0.052429,-0.008606,0.000610
2026-05-01 15:24:02,0.1523,-0.9961,9.7656,0.998596,-0.052429,-0.008606,0.000610
2026-05-01 15:24:02,0.1523,-0.9961,9.7656,0.998596,-0.052429,-0.008606,0.000610
2026-05-01 15:24:02,0.1133,-1.0352,9.7305,0.998596,-0.052429,-0.008606,0.000610
2026-05-01 15:24:03,0.1523,-1.0352,9.7656,0.998596,-0.052429,-0.008606,0.000610
2026-05-01 15:24:03,0.1914,-1.0352,9.7695,0.998596,-0.052429,-0.008606,0.000610
2026-05-01 15:24:03,0.1523,-1.0352,9.7656,0.998596,-0.052429,-0.008606,0.000610
2026-05-01 15:24:03,0.1523,-1.0352,9.7656,0.998596,-0.052429,-0.008606,0.000610
2026-05-01 15:24:03,0.1523,-1.0352,9.7656,0.998596,-0.052368,-0.008606,0.000610
2026-05-01 15:24:03,0.1523,-1.0352,9.7305,0.998596,-0.052368,-0.008606,0.000610
2026-05-01 15:24:03,0.1523,-1.0352,9.7305,0.998596,-0.052368,-0.008606,0.000610
2026-05-01 15:24:03,0.1523,-1.0742,9.7695,0.998596,-0.052368,-0.008606,0.000610
2026-05-01 15:24:03,0.1523,-1.0352,9.7656,0.998596,-0.052368,-0.008606,0.000610
2026-05-01 15:24:03,0.1523,-1.0352,9.7656,0.998596,-0.052429,-0.008606,0.000610
2026-05-01 15:24:03,0.1523,-1.0352,9.7305,0.998596,-0.052429,-0.008606,0.000610
2026-05-01 15:24:03,0.1523,-1.0352,9.7656,0.998596,-0.052429,-0.008606,0.000610
2026-05-01 15:24:03,0.1914,-1.0352,9.7266,0.998596,-0.052429,-0.008606,0.000610
2026-05-01 15:24:03,0.1523,-1.0352,9.7656,0.998596,-0.052429,-0.008545,0.000610
2026-05-01 15:24:03,0.1523,-1.0352,9.7656,0.998596,-0.052429,-0.008545,0.000610
2026-05-01 15:24:03,0.1914,-0.9961,9.7695,0.998596,-0.052429,-0.008545,0.000610
2026-05-01 15:24:03,0.1523,-0.9961,9.7656,0.998596,-0.052429,-0.008545,0.000610
2026-05-01 15:24:03,0.1914,-1.0352,9.7266,0.998596,-0.052429,-0.008545,0.000610
2026-05-01 15:24:03,0.1914,-1.0352,9.6875,0.998596,-0.052429,-0.008545,0.000610
2026-05-01 15:24:03,0.1523,-1.0352,9.7305,0.998596,-0.052429,-0.008545,0.000610
2026-05-01 15:24:03,0.1523,-1.0742,9.7695,0.998596,-0.052429,-0.008545,0.000610
2026-05-01 15:24:03,0.1523,-1.0742,9.7266,0.998596,-0.052429,-0.008545,0.000610
2026-05-01 15:24:03,0.1914,-1.0352,9.7266,0.998596,-0.052429,-0.008545,0.000610
2026-05-01 15:24:03,0.1523,-1.0352,9.7656,0.998596,-0.052429,-0.008545,0.000610
2026-05-01 15:24:03,0.1523,-1.0352,9.7656,0.998596,-0.052429,-0.008545,0.000610
2026-05-01 15:24:03,0.1523,-1.0352,9.7656,0.998596,-0.052490,-0.008545,0.000610
2026-05-01 15:24:03,0.1523,-1.0352,9.7656,0.998596,-0.052490,-0.008545,0.000610
2026-05-01 15:24:03,0.1523,-0.9961,9.7305,0.998596,-0.052490,-0.008545,0.000610
2026-05-01 15:24:03,0.1523,-1.0352,9.7656,0.998596,-0.052490,-0.008545,0.000610
2026-05-01 15:24:03,0.1133,-1.0742,9.7695,0.998596,-0.052490,-0.008545,0.000610
2026-05-01 15:24:03,0.1523,-1.0352,9.7656,0.998596,-0.052490,-0.008545,0.000610
2026-05-01 15:24:03,0.1914,-1.0352,9.7695,0.998596,-0.052490,-0.008545,0.000610
2026-05-01 15:24:03,0.1523,-1.0352,9.7656,0.998596,-0.052490,-0.008545,0.000610
2026-05-01 15:24:03,0.1523,-1.0352,9.8047,0.998596,-0.052490,-0.008545,0.000610
2026-05-01 15:24:03,0.1914,-1.0352,9.7695,0.998596,-0.052490,-0.008545,0.000610
2026-05-01 15:24:03,0.1523,-1.0352,9.7656,0.998596,-0.052490,-0.008545,0.000610
2026-05-01 15:24:03,0.1523,-1.0352,9.7305,0.998596,-0.052490,-0.008545,0.000610
2026-05-01 15:24:03,0.1523,-1.0352,9.7656,0.998596,-0.052490,-0.008545,0.000610
2026-05-01 15:24:03,0.1523,-1.0352,9.7656,0.998596,-0.052490,-0.008545,0.000610
2026-05-01 15:24:03,0.1523,-0.9961,9.7656,0.998596,-0.052490,-0.008484,0.000610
2026-05-01 15:24:03,0.1914,-0.9961,9.7695,0.998596,-0.052490,-0.008484,0.000610
2026-05-01 15:24:03,0.1523,-1.0352,9.7656,0.998596,-0.052490,-0.008484,0.000610
2026-05-01 15:24:03,0.1523,-1.0352,9.7305,0.998596,-0.052490,-0.008484,0.000610
2026-05-01 15:24:03,0.1523,-1.0352,9.7656,0.998596,-0.052490,-0.008484,0.000610
2026-05-01 15:24:03,0.1914,-1.0742,9.7656,0.998596,-0.052490,-0.008484,0.000610
2026-05-01 15:24:03,0.1523,-1.0352,9.7656,0.998596,-0.052490,-0.008484,0.000610
2026-05-01 15:24:03,0.1914,-1.0352,9.7266,0.998596,-0.052490,-0.008484,0.000610
2026-05-01 15:24:03,0.1523,-1.0352,9.7656,0.998596,-0.052551,-0.008484,0.000610
2026-05-01 15:24:03,0.1523,-1.0742,9.7266,0.998596,-0.052551,-0.008484,0.000610
2026-05-01 15:24:04,0.1523,-1.0352,9.7656,0.998596,-0.052551,-0.008484,0.000610
2026-05-01 15:24:04,0.1523,-1.0352,9.7656,0.998596,-0.052551,-0.008484,0.000610
2026-05-01 15:24:04,0.1914,-1.0352,9.6875,0.998596,-0.052551,-0.008484,0.000610
2026-05-01 15:24:04,0.1523,-1.0352,9.7656,0.998596,-0.052551,-0.008484,0.000610
2026-05-01 15:24:04,0.1914,-1.0352,9.7695,0.998596,-0.052551,-0.008484,0.000610
2026-05-01 15:24:04,0.1523,-1.0352,9.7305,0.998596,-0.052551,-0.008484,0.000610
2026-05-01 15:24:04,0.1914,-1.0352,9.7695,0.998596,-0.052551,-0.008484,0.000610
2026-05-01 15:24:04,0.1523,-1.0352,9.7305,0.998596,-0.052551,-0.008484,0.000610
2026-05-01 15:24:04,0.1523,-1.0352,9.7305,0.998596,-0.052551,-0.008484,0.000610
2026-05-01 15:24:04,0.1523,-1.0352,9.7305,0.998596,-0.052551,-0.008484,0.000610
2026-05-01 15:24:04,0.1523,-1.0352,9.7656,0.998596,-0.052551,-0.008484,0.000610
2026-05-01 15:24:04,0.1523,-1.0352,9.7656,0.998596,-0.052551,-0.008484,0.000610
2026-05-01 15:24:04,0.1523,-1.0352,9.7656,0.998596,-0.052551,-0.008484,0.000610
2026-05-01 15:24:04,0.1914,-1.0352,9.7695,0.998596,-0.052551,-0.008484,0.000610
2026-05-01 15:24:04,0.1914,-1.0352,9.7695,0.998596,-0.052551,-0.008484,0.000610
2026-05-01 15:24:04,0.1523,-1.0352,9.7656,0.998596,-0.052551,-0.008484,0.000610
2026-05-01 15:24:04,0.1523,-1.0352,9.7305,0.998596,-0.052551,-0.008484,0.000610
2026-05-01 15:24:04,0.1523,-1.0352,9.7656,0.998596,-0.052551,-0.008484,0.000610
2026-05-01 15:24:04,0.1523,-1.0352,9.7656,0.998596,-0.052551,-0.008484,0.000610
2026-05-01 15:24:04,0.1523,-1.0352,9.7656,0.998596,-0.052551,-0.008484,0.000610
2026-05-01 15:24:04,0.1523,-1.0352,9.7305,0.998596,-0.052551,-0.008484,0.000610
2026-05-01 15:24:04,0.1523,-1.0352,9.7656,0.998596,-0.052551,-0.008484,0.000610
2026-05-01 15:24:04,0.1523,-0.9961,9.7305,0.998596,-0.052551,-0.008484,0.000610
2026-05-01 15:24:04,0.1523,-1.0352,9.7305,0.998596,-0.052551,-0.008484,0.000610
2026-05-01 15:24:04,0.1523,-1.0352,9.7656,0.998596,-0.052551,-0.008484,0.000610
2026-05-01 15:24:04,0.1914,-1.0352,9.7695,0.998596,-0.052551,-0.008484,0.000610
2026-05-01 15:24:04,0.1914,-1.0352,9.7266,0.998596,-0.052551,-0.008484,0.000610
2026-05-01 15:24:04,0.1523,-0.9961,9.7656,0.998596,-0.052551,-0.008484,0.000610
2026-05-01 15:24:04,0.1523,-1.0352,9.7656,0.998596,-0.052551,-0.008484,0.000610
2026-05-01 15:24:04,0.1914,-1.0352,9.7695,0.998596,-0.052551,-0.008484,0.000610
2026-05-01 15:24:04,0.1523,-1.0352,9.7656,0.998596,-0.052551,-0.008484,0.000610
2026-05-01 15:24:04,0.1523,-1.0352,9.7656,0.998596,-0.052551,-0.008484,0.000610
2026-05-01 15:24:04,0.1523,-1.0352,9.7305,0.998596,-0.052551,-0.008484,0.000610
2026-05-01 15:24:04,0.1523,-1.0352,9.7656,0.998596,-0.052551,-0.008484,0.000610
2026-05-01 15:24:04,0.1523,-1.0352,9.7656,0.998596,-0.052551,-0.008484,0.000610
2026-05-01 15:24:04,0.1523,-1.0352,9.7656,0.998596,-0.052551,-0.008484,0.000610
2026-05-01 15:24:04,0.1523,-0.9961,9.7656,0.998596,-0.052551,-0.008484,0.000610
2026-05-01 15:24:04,0.1523,-1.0352,9.7305,0.998596,-0.052551,-0.008484,0.000610
2026-05-01 15:24:04,0.1523,-1.0352,9.7656,0.998596,-0.052551,-0.008484,0.000610
2026-05-01 15:24:04,0.1523,-1.0352,9.7656,0.998596,-0.052551,-0.008484,0.000610
2026-05-01 15:24:04,0.1523,-1.0352,9.7305,0.998596,-0.052551,-0.008484,0.000610
2026-05-01 15:24:04,0.1523,-1.0352,9.7305,0.998596,-0.052551,-0.008484,0.000610
2026-05-01 15:24:04,0.1523,-1.0352,9.7305,0.998596,-0.052551,-0.008484,0.000610
2026-05-01 15:24:04,0.1914,-1.0352,9.7695,0.998596,-0.052551,-0.008484,0.000610
2026-05-01 15:24:04,0.1523,-0.9961,9.7305,0.998596,-0.052551,-0.008484,0.000610
2026-05-01 15:24:04,0.1523,-1.0352,9.7305,0.998596,-0.052612,-0.008423,0.000610
2026-05-01 15:24:04,0.1523,-0.9961,9.7656,0.998596,-0.052612,-0.008423,0.000610
2026-05-01 15:24:04,0.1914,-1.0352,9.7695,0.998596,-0.052612,-0.008423,0.000610
2026-05-01 15:24:04,0.1523,-1.0352,9.7656,0.998596,-0.052551,-0.008423,0.000610
2026-05-01 15:24:04,0.1523,-1.0352,9.7656,0.998596,-0.052551,-0.008423,0.000610
2026-05-01 15:24:05,0.1523,-1.0352,9.7656,0.998596,-0.052551,-0.008423,0.000610
2026-05-01 15:24:05,0.1523,-1.0352,9.7305,0.998596,-0.052551,-0.008423,0.000610
2026-05-01 15:24:05,0.1914,-1.0352,9.7695,0.998596,-0.052551,-0.008423,0.000610
2026-05-01 15:24:05,0.1523,-0.9961,9.7305,0.998596,-0.052551,-0.008423,0.000610
2026-05-01 15:24:05,0.1523,-1.0352,9.7656,0.998596,-0.052551,-0.008423,0.000610
2026-05-01 15:24:05,0.1523,-1.0352,9.7656,0.998596,-0.052551,-0.008423,0.000610
2026-05-01 15:24:05,0.1523,-1.0352,9.7656,0.998596,-0.052551,-0.008423,0.000610
2026-05-01 15:24:05,0.1523,-1.0352,9.7305,0.998596,-0.052551,-0.008423,0.000610
2026-05-01 15:24:05,0.1523,-1.0352,9.7305,0.998596,-0.052551,-0.008423,0.000610
2026-05-01 15:24:05,0.1523,-1.0352,9.7656,0.998596,-0.052551,-0.008423,0.000610
2026-05-01 15:24:05,0.1523,-0.9961,9.7305,0.998596,-0.052551,-0.008423,0.000610
2026-05-01 15:24:05,0.1523,-1.0352,9.7305,0.998596,-0.052551,-0.008423,0.000610
2026-05-01 15:24:05,0.1523,-1.0352,9.7305,0.998596,-0.052551,-0.008423,0.000610
2026-05-01 15:24:05,0.1914,-1.0352,9.7695,0.998596,-0.052551,-0.008423,0.000610
2026-05-01 15:24:05,0.1523,-1.0742,9.7266,0.998596,-0.052551,-0.008423,0.000610
2026-05-01 15:24:05,0.1523,-1.0352,9.7656,0.998596,-0.052551,-0.008423,0.000610
2026-05-01 15:24:05,0.1523,-1.0352,9.7656,0.998596,-0.052551,-0.008423,0.000610
2026-05-01 15:24:05,0.1523,-1.0352,9.7305,0.998596,-0.052551,-0.008423,0.000610
2026-05-01 15:24:05,0.1523,-1.0352,9.7305,0.998596,-0.052551,-0.008423,0.000610
2026-05-01 15:24:05,0.1523,-1.0352,9.7656,0.998596,-0.052551,-0.008423,0.000610
2026-05-01 15:24:05,0.1523,-1.0352,9.7305,0.998596,-0.052551,-0.008423,0.000610
2026-05-01 15:24:05,0.1914,-1.0742,9.7656,0.998596,-0.052551,-0.008423,0.000610
2026-05-01 15:24:05,0.1523,-1.0352,9.7656,0.998596,-0.052551,-0.008423,0.000610
2026-05-01 15:24:05,0.1523,-0.9961,9.7656,0.998596,-0.052551,-0.008423,0.000610
2026-05-01 15:24:05,0.1523,-1.0352,9.7656,0.998596,-0.052551,-0.008423,0.000610
2026-05-01 15:24:05,0.1523,-1.0352,9.7656,0.998596,-0.052551,-0.008423,0.000610
2026-05-01 15:24:05,0.1523,-1.0352,9.7656,0.998596,-0.052551,-0.008423,0.000610
2026-05-01 15:24:05,0.1523,-1.0352,9.7656,0.998596,-0.052551,-0.008423,0.000610
2026-05-01 15:24:05,0.1523,-1.0352,9.7305,0.998596,-0.052551,-0.008423,0.000610
2026-05-01 15:24:05,0.1523,-1.0742,9.7695,0.998596,-0.052551,-0.008423,0.000610
2026-05-01 15:24:05,0.1523,-1.0352,9.7656,0.998596,-0.052551,-0.008423,0.000610
2026-05-01 15:24:05,0.1523,-1.0352,9.7656,0.998596,-0.052551,-0.008423,0.000610
2026-05-01 15:24:05,0.1523,-1.0352,9.7656,0.998596,-0.052551,-0.008423,0.000610
2026-05-01 15:24:05,0.1523,-1.0352,9.7656,0.998596,-0.052551,-0.008362,0.000610
2026-05-01 15:24:05,0.1523,-1.0352,9.7305,0.998596,-0.052551,-0.008362,0.000610
2026-05-01 15:24:05,0.1523,-1.0742,9.7695,0.998596,-0.052612,-0.008362,0.000610
2026-05-01 15:24:05,0.1914,-1.0352,9.7695,0.998596,-0.052612,-0.008362,0.000610
2026-05-01 15:24:05,0.1523,-1.0352,9.7305,0.998596,-0.052612,-0.008362,0.000610
2026-05-01 15:24:05,0.1133,-1.0352,9.7656,0.998596,-0.052612,-0.008362,0.000610
2026-05-01 15:24:05,0.1523,-1.0352,9.7656,0.998596,-0.052612,-0.008362,0.000610
2026-05-01 15:24:05,0.1523,-1.0352,9.7656,0.998596,-0.052612,-0.008362,0.000610
2026-05-01 15:24:05,0.1523,-1.0352,9.7305,0.998596,-0.052612,-0.008362,0.000610
2026-05-01 15:24:05,0.1523,-1.0352,9.7656,0.998596,-0.052612,-0.008362,0.000610
2026-05-01 15:24:05,0.1523,-0.9961,9.7305,0.998596,-0.052612,-0.008301,0.000610
2026-05-01 15:24:05,0.1523,-1.0352,9.7305,0.998596,-0.052612,-0.008301,0.000610
2026-05-01 15:24:05,0.1523,-1.0352,9.7305,0.998596,-0.052612,-0.008301,0.000610
2026-05-01 15:24:05,0.1523,-1.0352,9.7656,0.998596,-0.052612,-0.008301,0.000610
2026-05-01 15:24:05,0.1523,-1.0352,9.7305,0.998596,-0.052612,-0.008301,0.000610
2026-05-01 15:24:05,0.1523,-1.0352,9.7656,0.998596,-0.052612,-0.008301,0.000610
2026-05-01 15:24:06,0.1133,-1.0352,9.7656,0.998596,-0.052612,-0.008301,0.000610
2026-05-01 15:24:06,0.1523,-1.0352,9.8047,0.998596,-0.052612,-0.008301,0.000610
2026-05-01 15:24:06,0.1523,-1.0352,9.7656,0.998596,-0.052612,-0.008301,0.000610
2026-05-01 15:24:06,0.1914,-1.0352,9.7266,0.998596,-0.052612,-0.008301,0.000610
2026-05-01 15:24:06,0.1523,-0.9961,9.7305,0.998596,-0.052612,-0.008301,0.000610
2026-05-01 15:24:06,0.1523,-1.0352,9.7305,0.998596,-0.052612,-0.008301,0.000610
2026-05-01 15:24:06,0.1523,-1.0352,9.7656,0.998596,-0.052612,-0.008240,0.000610
2026-05-01 15:24:06,0.1523,-1.0352,9.7305,0.998596,-0.052612,-0.008240,0.000610
2026-05-01 15:24:06,0.1523,-1.0352,9.7305,0.998596,-0.052612,-0.008240,0.000610
2026-05-01 15:24:06,0.1523,-1.0352,9.7656,0.998596,-0.052612,-0.008240,0.000610
2026-05-01 15:24:06,0.1523,-1.0352,9.7305,0.998596,-0.052612,-0.008240,0.000610
2026-05-01 15:24:06,0.1523,-0.9961,9.7656,0.998596,-0.052612,-0.008240,0.000610
2026-05-01 15:24:06,0.1523,-1.0352,9.7656,0.998596,-0.052612,-0.008240,0.000610
2026-05-01 15:24:06,0.1523,-1.0352,9.7305,0.998596,-0.052612,-0.008240,0.000610
2026-05-01 15:24:06,0.1523,-1.0352,9.7305,0.998596,-0.052612,-0.008240,0.000610
2026-05-01 15:24:06,0.1914,-1.0352,9.7266,0.998596,-0.052612,-0.008240,0.000610
2026-05-01 15:24:06,0.1523,-1.0352,9.8047,0.998596,-0.052612,-0.008240,0.000610
2026-05-01 15:24:06,0.1523,-1.0352,9.7305,0.998596,-0.052612,-0.008240,0.000610
2026-05-01 15:24:06,0.1523,-1.0352,9.7656,0.998596,-0.052612,-0.008240,0.000610
2026-05-01 15:24:06,0.1523,-1.0352,9.7656,0.998596,-0.052612,-0.008240,0.000610
2026-05-01 15:24:06,0.1914,-1.0352,9.7695,0.998596,-0.052612,-0.008240,0.000610
2026-05-01 15:24:06,0.1523,-1.0352,9.7656,0.998596,-0.052612,-0.008240,0.000610
2026-05-01 15:24:06,0.1523,-1.0742,9.7695,0.998596,-0.052612,-0.008240,0.000610
2026-05-01 15:24:06,0.1523,-1.0352,9.7305,0.998596,-0.052612,-0.008240,0.000610
2026-05-01 15:24:06,0.1523,-1.0352,9.7305,0.998596,-0.052612,-0.008240,0.000610
2026-05-01 15:24:06,0.1523,-1.0352,9.7656,0.998596,-0.052612,-0.008240,0.000610
2026-05-01 15:24:06,0.1523,-1.0352,9.7305,0.998596,-0.052612,-0.008240,0.000610
2026-05-01 15:24:06,0.1523,-1.0352,9.7305,0.998596,-0.052612,-0.008240,0.000610
2026-05-01 15:24:06,0.1523,-1.0352,9.7305,0.998596,-0.052612,-0.008240,0.000610
2026-05-01 15:24:06,0.1523,-1.0352,9.7305,0.998596,-0.052612,-0.008240,0.000610
2026-05-01 15:24:06,0.1523,-1.0352,9.7305,0.998596,-0.052612,-0.008240,0.000610
2026-05-01 15:24:06,0.1523,-1.0352,9.7656,0.998596,-0.052612,-0.008240,0.000610
2026-05-01 15:24:06,0.1523,-1.0352,9.7305,0.998596,-0.052612,-0.008240,0.000610
2026-05-01 15:24:06,0.1523,-1.0352,9.7656,0.998596,-0.052612,-0.008240,0.000610
2026-05-01 15:24:06,0.1523,-1.0352,9.7656,0.998596,-0.052612,-0.008240,0.000610
2026-05-01 15:24:06,0.1523,-1.0352,9.7656,0.998596,-0.052612,-0.008240,0.000610
2026-05-01 15:24:06,0.1523,-1.0352,9.7656,0.998596,-0.052612,-0.008240,0.000610
2026-05-01 15:24:06,0.1523,-0.9961,9.7656,0.998596,-0.052612,-0.008240,0.000610
2026-05-01 15:24:06,0.1523,-1.0352,9.7656,0.998596,-0.052612,-0.008240,0.000610
2026-05-01 15:24:06,0.1523,-1.0352,9.7305,0.998596,-0.052612,-0.008240,0.000610
2026-05-01 15:24:06,0.1523,-1.0352,9.7305,0.998596,-0.052612,-0.008240,0.000610
2026-05-01 15:24:06,0.1133,-1.0352,9.7305,0.998596,-0.052612,-0.008240,0.000610
2026-05-01 15:24:06,0.1523,-1.0352,9.7305,0.998596,-0.052612,-0.008240,0.000610
2026-05-01 15:24:06,0.1523,-0.9961,9.7656,0.998596,-0.052612,-0.008240,0.000610
2026-05-01 15:24:06,0.1523,-1.0352,9.7656,0.998596,-0.052612,-0.008240,0.000610
2026-05-01 15:24:06,0.1523,-1.0352,9.7305,0.998596,-0.052612,-0.008240,0.000610
2026-05-01 15:24:06,0.1523,-1.0352,9.7305,0.998596,-0.052551,-0.008240,0.000610
2026-05-01 15:24:06,0.1914,-1.0352,9.7695,0.998596,-0.052368,-0.008179,0.000610
2026-05-01 15:24:07,0.1914,-1.0352,9.7266,0.998596,-0.052246,-0.008179,0.000671
2026-05-01 15:24:07,0.1914,-1.0352,9.7266,0.998596,-0.052246,-0.008179,0.000671
2026-05-01 15:24:07,0.1523,-1.0352,9.7656,0.998596,-0.052246,-0.008179,0.000671
2026-05-01 15:24:07,0.1523,-1.0352,9.7305,0.998596,-0.052246,-0.008179,0.000610
2026-05-01 15:24:07,0.0781,-1.1875,9.7305,0.998596,-0.052246,-0.008179,0.000610
2026-05-01 15:24:07,0.0781,-1.1875,9.7656,0.998596,-0.052307,-0.008179,0.000793
2026-05-01 15:24:07,0.1133,-1.0352,9.7656,0.998596,-0.052246,-0.008179,0.001099
2026-05-01 15:24:07,0.0781,-0.9961,9.7305,0.998596,-0.052246,-0.008179,0.001343
2026-05-01 15:24:07,0.2305,-1.1875,10.0352,0.998596,-0.052063,-0.007813,0.001343
2026-05-01 15:24:07,0.3047,-0.8828,10.5703,0.998657,-0.051697,-0.007324,0.001038
2026-05-01 15:24:07,0.1523,-0.6914,9.8086,0.998657,-0.051025,-0.005615,0.000549
2026-05-01 15:24:07,0.2695,-1.3789,11.0313,0.998657,-0.051147,-0.002686,0.000244
2026-05-01 15:24:07,0.1133,-1.4180,10.8008,0.998657,-0.051270,-0.001343,0.000183
2026-05-01 15:24:07,-0.0391,-1.3008,10.4570,0.998596,-0.052063,0.006775,0.000916
2026-05-01 15:24:07,-0.0781,-1.1875,10.0313,0.998535,-0.052429,0.013062,0.001709
2026-05-01 15:24:07,-0.3047,-0.9570,9.6133,0.998413,-0.052429,0.019714,0.002625
2026-05-01 15:24:07,-0.4219,-0.9961,9.5391,0.998413,-0.052429,0.021545,0.002869
2026-05-01 15:24:07,-0.6914,-0.8438,9.6523,0.998108,-0.052368,0.032532,0.004456
2026-05-01 15:24:07,-1.1484,-1.1875,9.9258,0.995972,-0.051819,0.072510,0.008179
2026-05-01 15:24:07,-1.4922,-0.8828,9.3086,0.995361,-0.051819,0.080261,0.009521
2026-05-01 15:24:07,-1.5703,-0.8047,9.2695,0.994690,-0.051941,0.088257,0.010925
2026-05-01 15:24:07,-1.6836,-0.8047,9.2305,0.993958,-0.051941,0.096191,0.012146
2026-05-01 15:24:07,-1.9922,-0.8438,9.0781,0.993286,-0.051941,0.102722,0.013062
2026-05-01 15:24:07,-2.0313,-0.9180,9.3438,0.992615,-0.051941,0.108826,0.013794
2026-05-01 15:24:07,-2.0313,-0.7266,9.3828,0.991882,-0.051941,0.114990,0.014343
2026-05-01 15:24:07,-2.2969,-0.8828,9.3047,0.991028,-0.051880,0.122070,0.014648
2026-05-01 15:24:07,-2.4141,-1.0352,9.3828,0.990112,-0.051758,0.129456,0.014893
2026-05-01 15:24:07,-2.5273,-0.9961,9.4258,0.989258,-0.051636,0.135742,0.015198
2026-05-01 15:24:07,-3.4844,-0.4609,8.5820,0.982910,-0.052246,0.175110,0.021484
2026-05-01 15:24:07,-3.5625,-0.4961,8.5781,0.980591,-0.052002,0.187866,0.021423
2026-05-01 15:24:07,-3.6016,-0.9180,8.4258,0.979248,-0.051697,0.194885,0.020752
2026-05-01 15:24:07,-3.4492,-0.9570,8.7383,0.977966,-0.051453,0.201416,0.020203
2026-05-01 15:24:07,-3.7930,-0.8047,8.2383,0.976746,-0.051331,0.207275,0.019897
2026-05-01 15:24:07,-3.8672,-0.7656,8.2344,0.975952,-0.051270,0.210876,0.020020
2026-05-01 15:24:07,-4.1367,-0.7266,8.4258,0.975342,-0.051208,0.213806,0.020203
2026-05-01 15:24:07,-4.2891,-0.8438,8.3945,0.974792,-0.051147,0.216125,0.020386
2026-05-01 15:24:07,-4.2539,-0.8438,8.3906,0.974365,-0.051147,0.218140,0.020447
2026-05-01 15:24:07,-4.1367,-0.8438,8.8828,0.973877,-0.051086,0.220337,0.020447
2026-05-01 15:24:07,-4.5586,-0.8047,8.3164,0.970520,-0.050110,0.234985,0.018127
2026-05-01 15:24:07,-4.5977,-0.8828,8.3555,0.970337,-0.049927,0.235840,0.017517
2026-05-01 15:24:07,-4.5586,-0.8828,8.4219,0.970276,-0.049805,0.236084,0.017212
2026-05-01 15:24:07,-4.5195,-0.8438,8.5039,0.970337,-0.049744,0.235901,0.017151
2026-05-01 15:24:07,-4.4805,-0.8828,8.6172,0.970398,-0.049744,0.235596,0.017151
2026-05-01 15:24:07,-4.5195,-0.8438,8.5039,0.970520,-0.049683,0.235291,0.017151
2026-05-01 15:24:07,-4.5195,-0.8438,8.5039,0.970581,-0.049683,0.234863,0.017151
2026-05-01 15:24:07,-4.4805,-0.8438,8.5781,0.970703,-0.049622,0.234375,0.017151
2026-05-01 15:24:07,-4.4063,-0.9180,8.6953,0.970825,-0.049622,0.233948,0.017151
2026-05-01 15:24:07,-4.4453,-0.9180,8.6563,0.970947,-0.049683,0.233521,0.017212
2026-05-01 15:24:08,-4.3281,-0.9180,8.7773,0.971497,-0.049805,0.231140,0.016846
2026-05-01 15:24:08,-4.4453,-0.8828,8.5781,0.971558,-0.049805,0.230957,0.016846
2026-05-01 15:24:08,-4.4805,-0.8828,8.5391,0.971619,-0.049805,0.230774,0.016907
2026-05-01 15:24:08,-4.4805,-0.8047,8.5430,0.971680,-0.049805,0.230408,0.016846
2026-05-01 15:24:08,-4.3672,-0.8828,8.6211,0.971802,-0.049744,0.229980,0.016663
2026-05-01 15:24:08,-4.4063,-0.9180,8.5820,0.971863,-0.049744,0.229492,0.016541
2026-05-01 15:24:08,-4.4063,-0.9570,8.5430,0.972046,-0.049744,0.228943,0.016541
2026-05-01 15:24:08,-4.2891,-0.8828,8.6953,0.972168,-0.049744,0.228271,0.016602
2026-05-01 15:24:08,-4.2891,-0.9180,8.8477,0.972351,-0.049805,0.227661,0.016663
2026-05-01 15:24:08,-4.2539,-0.8828,8.8438,0.972412,-0.049805,0.227173,0.016724
2026-05-01 15:24:08,-4.3281,-0.9180,8.7383,0.972595,-0.049866,0.226562,0.016968
2026-05-01 15:24:08,-4.4063,-0.7656,8.5000,0.972595,-0.049866,0.226562,0.016968
2026-05-01 15:24:08,-4.3672,-0.8047,8.4609,0.972595,-0.049805,0.226562,0.017151
2026-05-01 15:24:08,-4.4063,-0.8438,8.5039,0.972717,-0.049805,0.225891,0.017151
2026-05-01 15:24:08,-4.4063,-0.8438,8.5039,0.972900,-0.049866,0.225098,0.017090
2026-05-01 15:24:08,-4.3672,-0.8438,8.5430,0.973145,-0.049866,0.224060,0.017029
2026-05-01 15:24:08,-4.2891,-0.8828,8.6953,0.973450,-0.049866,0.222900,0.016968
2026-05-01 15:24:08,-4.3281,-0.8438,8.4648,0.973755,-0.049866,0.221497,0.016907
2026-05-01 15:24:08,-4.3281,-0.8438,8.4219,0.974121,-0.049927,0.219788,0.016785
2026-05-01 15:24:08,-4.1367,-0.8438,8.6992,0.974670,-0.049866,0.217407,0.016724
2026-05-01 15:24:08,-3.9063,-0.8438,8.9648,0.976746,-0.049683,0.207947,0.015076
2026-05-01 15:24:08,-3.9063,-0.8828,8.9219,0.977600,-0.049622,0.204102,0.014221
2026-05-01 15:24:08,-3.9063,-0.8828,8.8867,0.978027,-0.049500,0.202148,0.013611
2026-05-01 15:24:08,-3.8320,-0.9180,8.9258,0.978394,-0.049377,0.200439,0.013062
2026-05-01 15:24:08,-3.7539,-0.9961,9.0781,0.978699,-0.049255,0.198914,0.012573
2026-05-01 15:24:08,-3.7148,-1.0742,9.0430,0.979004,-0.049194,0.197510,0.012268
2026-05-01 15:24:08,-3.7148,-0.9961,9.0000,0.979248,-0.049255,0.196350,0.012146
2026-05-01 15:24:08,-3.8320,-0.8438,8.7734,0.979431,-0.049255,0.195129,0.012146
2026-05-01 15:24:08,-3.8672,-0.8828,8.7383,0.979736,-0.049255,0.193787,0.012085
2026-05-01 15:24:08,-3.8320,-0.8828,8.6992,0.980103,-0.049255,0.191833,0.012024
2026-05-01 15:24:08,-3.3711,-0.9961,9.0781,0.982727,-0.049316,0.178101,0.011108
2026-05-01 15:24:08,-3.3711,-0.8438,9.1992,0.982910,-0.049316,0.176941,0.010986
2026-05-01 15:24:08,-3.2930,-0.8828,9.1992,0.983215,-0.049316,0.175293,0.010864
2026-05-01 15:24:08,-3.2930,-0.9180,9.1992,0.983948,-0.049316,0.171265,0.010132
2026-05-01 15:24:08,-3.1797,-0.9180,9.3047,0.984375,-0.049194,0.168762,0.009399
2026-05-01 15:24:08,-3.1797,-0.8438,9.2305,0.984741,-0.049072,0.166565,0.008423
2026-05-01 15:24:08,-3.1406,-0.9180,9.2305,0.985107,-0.048950,0.164612,0.007568
2026-05-01 15:24:08,-3.2188,-0.9570,8.9258,0.985168,-0.048950,0.164124,0.007324
2026-05-01 15:24:08,-3.2188,-0.9570,8.9609,0.985840,-0.048889,0.160400,0.006409
2026-05-01 15:24:08,-3.2188,-0.9570,9.0000,0.986267,-0.048889,0.157715,0.005920
2026-05-01 15:24:08,-2.6797,-0.8438,9.1953,0.988892,-0.048706,0.140503,0.002197
2026-05-01 15:24:08,-2.7578,-0.7266,8.7734,0.989319,-0.048706,0.137512,0.001587
2026-05-01 15:24:08,-2.6797,-0.7656,8.7344,0.990417,-0.048645,0.129456,-0.000427
2026-05-01 15:24:08,-2.6055,-1.0742,8.9609,0.991150,-0.048584,0.123413,-0.002197
2026-05-01 15:24:08,-2.1055,-0.9570,9.5820,0.991821,-0.048462,0.117798,-0.003845
2026-05-01 15:24:08,-2.0313,-1.0352,9.5781,0.992188,-0.048401,0.115173,-0.004578
2026-05-01 15:24:08,-1.9531,-1.0742,9.6094,0.993164,-0.048279,0.106079,-0.007141
2026-05-01 15:24:08,-1.9141,-1.1484,9.6484,0.993469,-0.048218,0.103149,-0.007935
2026-05-01 15:24:08,-1.8008,-1.1094,9.7656,0.994141,-0.048035,0.096619,-0.009583
2026-05-01 15:24:09,-1.7617,-1.0742,9.9258,0.994507,-0.048096,0.092163,-0.010437
2026-05-01 15:24:09,-0.9570,-1.0742,10.0703,0.997314,-0.048645,0.052917,-0.013489
2026-05-01 15:24:09,-0.7656,-1.0352,10.0000,0.997559,-0.048767,0.047668,-0.013855
2026-05-01 15:24:09,-0.7266,-0.9570,9.8867,0.997742,-0.048889,0.043457,-0.014038
2026-05-01 15:24:09,-0.7266,-0.8828,9.7656,0.997925,-0.048950,0.039368,-0.014282
2026-05-01 15:24:09,-0.7266,-0.8828,9.7656,0.998047,-0.049072,0.035339,-0.014526
2026-05-01 15:24:09,-0.4609,-0.8438,9.6484,0.998230,-0.049072,0.030945,-0.014954
2026-05-01 15:24:09,-0.4609,-0.8828,9.5820,0.998291,-0.049133,0.026917,-0.015503
2026-05-01 15:24:09,-0.4609,-0.9961,9.4648,0.998413,-0.049255,0.022705,-0.016113
2026-05-01 15:24:09,-0.3047,-0.9570,9.3828,0.998474,-0.049316,0.017517,-0.016968
2026-05-01 15:24:09,-0.3438,-1.0352,9.5430,0.998535,-0.049377,0.014832,-0.017395
2026-05-01 15:24:09,0.5352,-0.8828,9.9648,0.998413,-0.051147,-0.011047,-0.021301
2026-05-01 15:24:09,0.2305,-0.9570,9.7266,0.998413,-0.051208,-0.010986,-0.021240
2026-05-01 15:24:09,0.1914,-1.2656,9.7305,0.998413,-0.051208,-0.010986,-0.021240
2026-05-01 15:24:09,0.1523,-0.7266,9.6914,0.998413,-0.051270,-0.011047,-0.021667
2026-05-01 15:24:09,0.0391,-0.8047,9.7695,0.998352,-0.051514,-0.011047,-0.022278
2026-05-01 15:24:09,0.0391,-0.9961,9.7656,0.998352,-0.051575,-0.011047,-0.022400
2026-05-01 15:24:09,0.1523,-0.9961,9.7656,0.998352,-0.051636,-0.011047,-0.022705
2026-05-01 15:24:09,0.0781,-0.9570,9.7656,0.998352,-0.051636,-0.011047,-0.022949
2026-05-01 15:24:09,0.0781,-0.9570,9.7656,0.998352,-0.051697,-0.011047,-0.023132
2026-05-01 15:24:09,0.1133,-0.9961,9.7656,0.998352,-0.051697,-0.011047,-0.023132
2026-05-01 15:24:09,0.1523,-0.9961,9.7656,0.998352,-0.051636,-0.011047,-0.023010
2026-05-01 15:24:09,0.1523,-1.0742,9.7695,0.998352,-0.051575,-0.011047,-0.023010
2026-05-01 15:24:09,0.1914,-1.0352,9.8086,0.998352,-0.051514,-0.011047,-0.023010
2026-05-01 15:24:09,0.1523,-1.0352,9.7656,0.998352,-0.051453,-0.011047,-0.022949
2026-05-01 15:24:09,0.1523,-1.0352,9.7656,0.998352,-0.051453,-0.011047,-0.022949
2026-05-01 15:24:09,0.1523,-1.0352,9.7656,0.998352,-0.051453,-0.011047,-0.022949
2026-05-01 15:24:09,0.1523,-1.0742,9.7695,0.998352,-0.051514,-0.011047,-0.023010
2026-05-01 15:24:09,0.1523,-1.0352,9.7305,0.998352,-0.051514,-0.011047,-0.023010
2026-05-01 15:24:09,0.1523,-1.0352,9.7656,0.998352,-0.051514,-0.011047,-0.023071
2026-05-01 15:24:09,0.1914,-1.0352,9.7695,0.998352,-0.051514,-0.011047,-0.023071
2026-05-01 15:24:09,0.1523,-1.0352,9.7305,0.998352,-0.051636,-0.011047,-0.023071
2026-05-01 15:24:09,0.1133,-1.0352,9.7656,0.998352,-0.051636,-0.011047,-0.023071
2026-05-01 15:24:09,0.1523,-1.0352,9.7656,0.998352,-0.051636,-0.011047,-0.023132
2026-05-01 15:24:09,0.1523,-1.0352,9.7656,0.998352,-0.051636,-0.011047,-0.023132
2026-05-01 15:24:09,0.1523,-0.9961,9.7305,0.998352,-0.051575,-0.011047,-0.023071
2026-05-01 15:24:09,0.1523,-1.0352,9.7656,0.998352,-0.051575,-0.011047,-0.023071
2026-05-01 15:24:09,0.1523,-1.0352,9.7656,0.998352,-0.051636,-0.011047,-0.023132
2026-05-01 15:24:09,0.1523,-1.0352,9.7656,0.998352,-0.051636,-0.011047,-0.023132
2026-05-01 15:24:09,0.1523,-0.9961,9.7656,0.998352,-0.051636,-0.011108,-0.023132
2026-05-01 15:24:09,0.1523,-1.0352,9.7656,0.998352,-0.051636,-0.011108,-0.023132
2026-05-01 15:24:09,0.1523,-1.0352,9.7656,0.998352,-0.051697,-0.010925,-0.023071
2026-05-01 15:24:09,0.1523,-0.9961,9.7656,0.998352,-0.051697,-0.010864,-0.023010
2026-05-01 15:24:09,0.1523,-1.0352,9.7656,0.998352,-0.051697,-0.010803,-0.023010
2026-05-01 15:24:10,0.1523,-1.0352,9.7656,0.998352,-0.051636,-0.010742,-0.023010
2026-05-01 15:24:10,0.1914,-1.0352,9.7695,0.998352,-0.051636,-0.010681,-0.023010
2026-05-01 15:24:10,0.1523,-0.9961,9.7656,0.998352,-0.051636,-0.010681,-0.023010
2026-05-01 15:24:10,0.1523,-1.0352,9.7305,0.998352,-0.051575,-0.010620,-0.023010
2026-05-01 15:24:10,0.1523,-1.0352,9.7305,0.998352,-0.051636,-0.010559,-0.022949
2026-05-01 15:24:10,0.1914,-1.0352,9.7695,0.998352,-0.051636,-0.010498,-0.022949
2026-05-01 15:24:10,0.1523,-1.0352,9.7656,0.998352,-0.051636,-0.010437,-0.022949
2026-05-01 15:24:10,0.1133,-1.0352,9.7656,0.998352,-0.051697,-0.010376,-0.023010
2026-05-01 15:24:10,0.1523,-0.9961,9.7656,0.998352,-0.051697,-0.010315,-0.023071
2026-05-01 15:24:10,0.1523,-1.0352,9.7305,0.998352,-0.051697,-0.010315,-0.023010
2026-05-01 15:24:10,0.1523,-1.0352,9.7305,0.998352,-0.051697,-0.010254,-0.023010
2026-05-01 15:24:10,0.1523,-1.0352,9.8047,0.998352,-0.051697,-0.010193,-0.023010
2026-05-01 15:24:10,0.1133,-0.9961,9.7656,0.998352,-0.051697,-0.010132,-0.023010
2026-05-01 15:24:10,0.1523,-1.0352,9.7305,0.998352,-0.051758,-0.010132,-0.023010
2026-05-01 15:24:10,0.1523,-1.0352,9.7305,0.998352,-0.051758,-0.010132,-0.023010
2026-05-01 15:24:10,0.1523,-1.0352,9.7656,0.998352,-0.051819,-0.010071,-0.023010
2026-05-01 15:24:10,0.1523,-0.9961,9.7656,0.998352,-0.051880,-0.010071,-0.023071
2026-05-01 15:24:10,0.1523,-0.9961,9.7656,0.998352,-0.051880,-0.009827,-0.023071
2026-05-01 15:24:10,0.1523,-1.0352,9.7656,0.998352,-0.051880,-0.009827,-0.023071
2026-05-01 15:24:10,0.1523,-1.0352,9.7656,0.998352,-0.051880,-0.009766,-0.023071
2026-05-01 15:24:10,0.1523,-1.0352,9.7656,0.998352,-0.051880,-0.009766,-0.023010
2026-05-01 15:24:10,0.1523,-0.9961,9.7656,0.998352,-0.051880,-0.009766,-0.023071
2026-05-01 15:24:10,0.1523,-1.0352,9.7656,0.998352,-0.051880,-0.009705,-0.023071
2026-05-01 15:24:10,0.1523,-1.0352,9.7305,0.998352,-0.051941,-0.009705,-0.023071
2026-05-01 15:24:10,0.1523,-1.0352,9.7656,0.998352,-0.051941,-0.009644,-0.023010
2026-05-01 15:24:10,0.1523,-1.0352,9.7656,0.998352,-0.051941,-0.009644,-0.023010
2026-05-01 15:24:10,0.1523,-1.0352,9.7656,0.998352,-0.051941,-0.009583,-0.023010
2026-05-01 15:24:10,0.1523,-1.0352,9.8047,0.998352,-0.051880,-0.009460,-0.023010
2026-05-01 15:24:10,0.1523,-1.0352,9.7656,0.998352,-0.051941,-0.009399,-0.023010
2026-05-01 15:24:10,0.1523,-0.9961,9.7656,0.998352,-0.051941,-0.009399,-0.023010
2026-05-01 15:24:10,0.1523,-1.0352,9.7305,0.998352,-0.051941,-0.009399,-0.023010
2026-05-01 15:24:10,0.1523,-0.9961,9.6914,0.998352,-0.051880,-0.009399,-0.022949
2026-05-01 15:24:10,0.1523,-1.0352,9.7305,0.998352,-0.051880,-0.009399,-0.022949
2026-05-01 15:24:10,0.1914,-1.0352,9.7266,0.998352,-0.051880,-0.009399,-0.022888
2026-05-01 15:24:10,0.1523,-1.0352,9.7656,0.998352,-0.051819,-0.009399,-0.022949
2026-05-01 15:24:10,0.1523,-1.0352,9.7656,0.998352,-0.051819,-0.009399,-0.022949
2026-05-01 15:24:10,0.1523,-1.0352,9.7305,0.998352,-0.051819,-0.009338,-0.022949
2026-05-01 15:24:10,0.1133,-1.0352,9.7656,0.998352,-0.051880,-0.009216,-0.022888
2026-05-01 15:24:10,0.1523,-1.0352,9.7305,0.998352,-0.051880,-0.009216,-0.022888
2026-05-01 15:24:10,0.1914,-1.0352,9.7266,0.998352,-0.051880,-0.009216,-0.022888
2026-05-01 15:24:10,0.1523,-1.0352,9.7656,0.998352,-0.051880,-0.009155,-0.022888
2026-05-01 15:24:10,0.1523,-0.9961,9.7305,0.998352,-0.051880,-0.009155,-0.022888
2026-05-01 15:24:10,0.1523,-1.0352,9.7656,0.998352,-0.051880,-0.009094,-0.022888
2026-05-01 15:24:10,0.1523,-1.0742,9.7266,0.998352,-0.051880,-0.009094,-0.022888
2026-05-01 15:24:10,0.1523,-1.0352,9.7656,0.998352,-0.051880,-0.009094,-0.022888
2026-05-01 15:24:10,0.1523,-1.0352,9.7656,0.998352,-0.051880,-0.009094,-0.022888
2026-05-01 15:24:10,0.1523,-1.0352,9.7305,0.998352,-0.051880,-0.009033,-0.022888
2026-05-01 15:24:11,0.1523,-1.0352,9.7656,0.998352,-0.051941,-0.008972,-0.022888
2026-05-01 15:24:11,0.1523,-1.0352,9.7305,0.998352,-0.051941,-0.008911,-0.022888
2026-05-01 15:24:11,0.1523,-0.9961,9.7656,0.998352,-0.051941,-0.008911,-0.022888
2026-05-01 15:24:11,0.1523,-1.0352,9.7656,0.998352,-0.051941,-0.008850,-0.022888
2026-05-01 15:24:11,0.1523,-1.0352,9.7656,0.998352,-0.051941,-0.008850,-0.022888
2026-05-01 15:24:11,0.1523,-1.0352,9.7305,0.998352,-0.051941,-0.008789,-0.022888
2026-05-01 15:24:11,0.1523,-1.0352,9.7656,0.998352,-0.051941,-0.008789,-0.022888
2026-05-01 15:24:11,0.1523,-1.0352,9.7305,0.998352,-0.051941,-0.008789,-0.022888
2026-05-01 15:24:11,0.1523,-1.0352,9.7656,0.998352,-0.051941,-0.008789,-0.022888
2026-05-01 15:24:11,0.1523,-1.0352,9.7305,0.998352,-0.051941,-0.008789,-0.022888
2026-05-01 15:24:11,0.1523,-1.0352,9.7656,0.998352,-0.052002,-0.008606,-0.022827
2026-05-01 15:24:11,0.1523,-1.0352,9.7656,0.998352,-0.052002,-0.008606,-0.022827
2026-05-01 15:24:11,0.1523,-0.9961,9.7656,0.998352,-0.052002,-0.008545,-0.022827
2026-05-01 15:24:11,0.1523,-1.0352,9.7656,0.998352,-0.052063,-0.008545,-0.022827
2026-05-01 15:24:11,0.1133,-1.0352,9.7305,0.998352,-0.052063,-0.008484,-0.022827
2026-05-01 15:24:11,-0.5742,-1.2266,9.7266,0.998352,-0.052063,-0.008484,-0.022827
2026-05-01 15:24:11,-1.0742,-1.4180,9.7266,0.998352,-0.052063,-0.008484,-0.022156
2026-05-01 15:24:11,-0.6133,-1.4570,9.6914,0.998413,-0.052124,-0.008545,-0.020264
2026-05-01 15:24:11,1.0742,-0.1914,9.8047,0.998413,-0.052124,-0.008606,-0.018921
2026-05-01 15:24:11,0.6523,-0.8047,9.7695,0.998413,-0.052124,-0.008545,-0.018738
2026-05-01 15:24:11,0.1914,-0.8438,9.7695,0.998413,-0.051941,-0.008301,-0.019714
2026-05-01 15:24:11,0.1523,-0.9570,9.7305,0.998413,-0.051941,-0.008240,-0.019714
2026-05-01 15:24:11,0.1914,-1.0352,9.8438,0.998413,-0.051880,-0.008118,-0.019714
2026-05-01 15:24:11,0.1914,-1.0352,9.8438,0.998413,-0.051819,-0.007935,-0.019714
2026-05-01 15:24:11,0.1914,-1.0352,9.8438,0.998413,-0.051758,-0.007874,-0.019714
2026-05-01 15:24:11,0.0391,-1.1094,9.7695,0.998413,-0.051636,-0.007629,-0.019714
2026-05-01 15:24:11,-0.0781,-1.2656,9.8086,0.998474,-0.051270,-0.007080,-0.019531
2026-05-01 15:24:11,0.2305,-1.2656,10.1094,0.998474,-0.051270,-0.006470,-0.018921
2026-05-01 15:24:11,0.3438,-1.1094,10.3086,0.998535,-0.051331,-0.005249,-0.018005
2026-05-01 15:24:11,0.4219,-0.9961,10.4180,0.998535,-0.051392,-0.003479,-0.017151
2026-05-01 15:24:11,-0.4609,-1.0352,9.5820,0.998474,-0.051147,0.016602,-0.011902
2026-05-01 15:24:11,-0.4609,-0.9961,9.5039,0.998352,-0.051025,0.023376,-0.010376
2026-05-01 15:24:11,-0.4961,-0.8438,9.2656,0.998291,-0.051025,0.027588,-0.009521
2026-05-01 15:24:11,-0.6523,-0.9180,9.4219,0.998169,-0.050903,0.030762,-0.008911
2026-05-01 15:24:11,-0.6914,-0.9570,9.5781,0.998108,-0.050842,0.033508,-0.008301
2026-05-01 15:24:11,-0.7656,-1.0742,9.5820,0.998047,-0.050842,0.036194,-0.007690
2026-05-01 15:24:11,-0.9180,-1.0352,9.5039,0.997986,-0.050842,0.036926,-0.007568
2026-05-01 15:24:11,-0.9180,-0.9570,9.4648,0.997864,-0.050903,0.040588,-0.006348
2026-05-01 15:24:11,-0.9570,-0.8828,9.4648,0.997803,-0.050903,0.041626,-0.005981
2026-05-01 15:24:11,-0.9570,-0.9180,9.4219,0.997742,-0.050903,0.042786,-0.005493
2026-05-01 15:24:11,-1.1094,-1.0742,9.8477,0.997314,-0.050842,0.052124,-0.003052
2026-05-01 15:24:11,-1.0742,-1.0352,9.8086,0.997253,-0.050842,0.054199,-0.002625
2026-05-01 15:24:11,-1.0352,-1.0352,9.8047,0.997131,-0.050903,0.056335,-0.002136
2026-05-01 15:24:11,-1.0742,-0.9961,9.7266,0.997009,-0.050842,0.058594,-0.001709
2026-05-01 15:24:11,-1.0742,-0.9570,9.7695,0.996826,-0.050842,0.060974,-0.001343
2026-05-01 15:24:11,-1.2656,-0.8438,9.8438,0.996704,-0.050842,0.063416,-0.001099
2026-05-01 15:24:11,-1.2656,-0.8438,9.9258,0.996643,-0.050842,0.064270,-0.001099
2026-05-01 15:24:11,-1.3008,-0.7656,9.7305,0.996338,-0.050659,0.069214,-0.001099
2026-05-01 15:24:11,-1.3398,-1.1484,9.8086,0.996094,-0.050537,0.072693,-0.001221
2026-05-01 15:24:12,-1.4922,-1.2656,9.8477,0.995789,-0.050476,0.076538,-0.000977
2026-05-01 15:24:12,-1.8008,-0.9570,9.5000,0.994629,-0.050476,0.090332,0.001831
2026-05-01 15:24:12,-1.9531,-0.8047,9.3477,0.993774,-0.050598,0.099426,0.004578
2026-05-01 15:24:12,-1.9922,-0.8438,9.3828,0.993347,-0.050598,0.103333,0.005493
2026-05-01 15:24:12,-2.0313,-0.8828,9.4258,0.993042,-0.050537,0.106262,0.005920
2026-05-01 15:24:12,-2.0313,-0.9180,9.5000,0.992737,-0.050537,0.108948,0.006287
2026-05-01 15:24:12,-2.0703,-0.9570,9.5430,0.992432,-0.050537,0.111877,0.006653
2026-05-01 15:24:12,-2.2227,-1.0742,9.5391,0.992065,-0.050537,0.114807,0.007019
2026-05-01 15:24:12,-2.2617,-1.0352,9.5820,0.991699,-0.050598,0.117981,0.007507
2026-05-01 15:24:12,-2.2969,-0.9961,9.4648,0.991272,-0.050598,0.121399,0.008057
2026-05-01 15:24:12,-2.3359,-0.9180,9.3828,0.990906,-0.050598,0.124573,0.008484
2026-05-01 15:24:12,-2.8711,-1.0352,9.3086,0.985901,-0.051086,0.158813,0.014709
2026-05-01 15:24:12,-3.5625,-0.8047,8.5430,0.985107,-0.051331,0.163208,0.016418
2026-05-01 15:24:12,-3.4492,-0.8438,8.6211,0.984619,-0.051453,0.166199,0.017578
2026-05-01 15:24:12,-3.1016,-0.8047,9.2305,0.984192,-0.051514,0.168457,0.018433
2026-05-01 15:24:12,-3.1797,-0.9180,9.2656,0.983826,-0.051575,0.170532,0.018921
2026-05-01 15:24:12,-3.1797,-0.8828,9.2305,0.983398,-0.051636,0.172729,0.019287
2026-05-01 15:24:12,-3.2578,-0.7266,9.1563,0.983032,-0.051636,0.174988,0.019348
2026-05-01 15:24:12,-3.4102,-0.9180,9.1992,0.982544,-0.051697,0.177612,0.019409
2026-05-01 15:24:12,-3.4102,-0.9180,9.1172,0.982117,-0.051697,0.180054,0.019470
2026-05-01 15:24:12,-3.4492,-0.9180,9.0430,0.981689,-0.051636,0.182434,0.019592
2026-05-01 15:24:12,-3.7539,-0.9570,9.0000,0.979309,-0.051636,0.194519,0.020203
2026-05-01 15:24:12,-3.6758,-0.9570,9.3867,0.978210,-0.051636,0.200134,0.020813
2026-05-01 15:24:12,-3.8320,-0.9961,9.1563,0.977356,-0.051697,0.203979,0.021301
2026-05-01 15:24:12,-3.9453,-0.9180,8.9258,0.976501,-0.051819,0.208130,0.021912
2026-05-01 15:24:12,-4.0234,-0.8438,8.7383,0.975525,-0.051941,0.212524,0.022583
2026-05-01 15:24:12,-4.1367,-0.8438,8.6172,0.974609,-0.052063,0.216492,0.023193
2026-05-01 15:24:12,-4.2148,-0.8047,8.4648,0.974548,-0.052063,0.216858,0.023254
2026-05-01 15:24:12,-4.4063,-0.8438,8.4219,0.973084,-0.052368,0.223206,0.024475
2026-05-01 15:24:12,-4.3672,-0.8438,8.5820,0.972290,-0.052490,0.226501,0.025085
2026-05-01 15:24:12,-4.3281,-0.8047,8.6563,0.971985,-0.052490,0.227783,0.025330
2026-05-01 15:24:12,-4.5586,-0.8828,8.6602,0.968323,-0.052917,0.242615,0.027039
2026-05-01 15:24:12,-4.7109,-0.9180,8.5820,0.967834,-0.052917,0.244568,0.027161
2026-05-01 15:24:12,-4.7109,-0.8828,8.6953,0.966553,-0.053040,0.249390,0.027954
2026-05-01 15:24:12,-4.7109,-0.9961,8.7383,0.965515,-0.053162,0.253174,0.028748
2026-05-01 15:24:12,-4.5977,-0.9570,8.9258,0.964294,-0.053406,0.257629,0.029846
2026-05-01 15:24:12,-4.7500,-0.9570,8.7383,0.963013,-0.053711,0.262268,0.031128
2026-05-01 15:24:12,-5.1328,-0.6914,7.7383,0.962646,-0.053833,0.263428,0.031433
2026-05-01 15:24:12,-5.2109,-0.6523,7.6563,0.961731,-0.054077,0.266602,0.032349
2026-05-01 15:24:12,-5.0547,-0.6133,7.9336,0.959778,-0.054504,0.273193,0.034058
2026-05-01 15:24:12,-5.2109,-0.7656,8.0391,0.959045,-0.054626,0.275757,0.034485
2026-05-01 15:24:12,-5.3242,-0.7656,8.0078,0.956970,-0.054749,0.282715,0.035095
2026-05-01 15:24:12,-5.4023,-0.7656,7.9688,0.955994,-0.054810,0.286011,0.035156
2026-05-01 15:24:12,-5.4023,-0.7656,7.9336,0.955566,-0.054871,0.287415,0.035156
2026-05-01 15:24:12,-5.4414,-0.6914,7.9297,0.955261,-0.054810,0.288513,0.034973
2026-05-01 15:24:13,-5.4766,-0.7656,7.7773,0.955078,-0.054626,0.289307,0.034607
2026-05-01 15:24:13,-5.4414,-0.7656,7.8906,0.954895,-0.054443,0.289856,0.034119
2026-05-01 15:24:13,-5.4023,-0.7656,8.1172,0.954773,-0.054260,0.290405,0.033630
2026-05-01 15:24:13,-5.3242,-0.8438,8.1992,0.954590,-0.054077,0.291138,0.033203
2026-05-01 15:24:13,-5.3633,-0.8828,8.1953,0.954285,-0.054016,0.292175,0.033020
2026-05-01 15:24:13,-5.3633,-0.8438,8.1211,0.953918,-0.054016,0.293396,0.032898
2026-05-01 15:24:13,-5.5547,-0.7656,7.7734,0.952942,-0.053955,0.296387,0.032715
2026-05-01 15:24:13,-5.4766,-0.7656,7.8516,0.953125,-0.053955,0.296020,0.032715
2026-05-01 15:24:13,-5.4766,-0.7266,7.8555,0.953369,-0.053894,0.295166,0.032593
2026-05-01 15:24:13,-5.4766,-0.7656,7.9336,0.954224,-0.053833,0.292480,0.032104
2026-05-01 15:24:13,-5.4023,-0.8047,8.0391,0.954773,-0.053772,0.290710,0.031860
2026-05-01 15:24:13,-5.3242,-0.8047,8.1211,0.955322,-0.053772,0.288940,0.031677
2026-05-01 15:24:13,-5.3242,-0.8438,8.1172,0.955505,-0.053772,0.288330,0.031677
2026-05-01 15:24:13,-5.3242,-0.8047,8.0430,0.956238,-0.053772,0.285828,0.031555
2026-05-01 15:24:13,-5.2852,-0.8438,8.1211,0.956787,-0.053772,0.284119,0.031494
2026-05-01 15:24:13,-5.2109,-0.7656,8.1992,0.957275,-0.053772,0.282410,0.031433
2026-05-01 15:24:13,-5.0547,-0.8047,8.2773,0.960876,-0.053894,0.269836,0.030945
2026-05-01 15:24:13,-5.0195,-0.8438,8.1953,0.960876,-0.053894,0.269836,0.030945
2026-05-01 15:24:13,-4.9805,-0.7656,8.1953,0.961975,-0.053955,0.265991,0.030762
2026-05-01 15:24:13,-4.9023,-0.8047,8.3164,0.962708,-0.053955,0.263428,0.030518
2026-05-01 15:24:13,-4.8281,-0.8438,8.3516,0.963379,-0.053894,0.260925,0.030151
2026-05-01 15:24:13,-4.8633,-0.8438,8.3516,0.964050,-0.053833,0.258484,0.029846
2026-05-01 15:24:13,-4.8633,-0.8828,8.3516,0.964661,-0.053711,0.256165,0.029480
2026-05-01 15:24:13,-4.7500,-0.8438,8.4219,0.965393,-0.053650,0.253601,0.029114
2026-05-01 15:24:13,-4.7109,-0.8828,8.5039,0.965576,-0.053589,0.252930,0.029053
2026-05-01 15:24:13,-4.5977,-0.8828,8.6992,0.966431,-0.053589,0.249634,0.028809
2026-05-01 15:24:13,-4.5195,-0.8438,8.5039,0.969055,-0.053589,0.239258,0.028442
2026-05-01 15:24:13,-4.4805,-0.8438,8.5781,0.969299,-0.053589,0.238220,0.028381
2026-05-01 15:24:13,-4.4063,-0.8828,8.6602,0.970032,-0.053589,0.235229,0.028259
2026-05-01 15:24:13,-4.3672,-0.8828,8.6953,0.970520,-0.053589,0.233215,0.028198
2026-05-01 15:24:13,-4.3672,-0.8828,8.6953,0.970947,-0.053589,0.231384,0.028137
2026-05-01 15:24:13,-4.4063,-0.8438,8.5039,0.971497,-0.053650,0.229309,0.028076
2026-05-01 15:24:13,-4.3672,-0.8438,8.5430,0.972290,-0.053589,0.225769,0.027954
2026-05-01 15:24:13,-4.2891,-0.8438,8.5430,0.972961,-0.053589,0.222900,0.027832
2026-05-01 15:24:13,-4.2148,-0.8438,8.7344,0.973633,-0.053589,0.220032,0.027771
2026-05-01 15:24:13,-4.0977,-0.8828,8.7734,0.974243,-0.053528,0.217285,0.027527
2026-05-01 15:24:13,-3.8672,-0.8828,8.8125,0.977661,-0.053345,0.201599,0.025696
2026-05-01 15:24:13,-3.7148,-0.9180,9.0391,0.978699,-0.053162,0.196594,0.025024
2026-05-01 15:24:13,-3.6406,-0.9180,9.1953,0.979309,-0.053101,0.193787,0.024536
2026-05-01 15:24:13,-3.6016,-0.8438,9.1992,0.979431,-0.053101,0.193176,0.024414
2026-05-01 15:24:13,-3.5234,-0.9570,9.1602,0.980103,-0.052979,0.189941,0.023743
2026-05-01 15:24:13,-3.5625,-0.8438,9.0781,0.980469,-0.052917,0.188110,0.023376
2026-05-01 15:24:13,-3.5625,-0.8828,8.9609,0.980835,-0.052917,0.186157,0.023010
2026-05-01 15:24:13,-3.5234,-0.8828,9.0039,0.981201,-0.052917,0.184265,0.022644
2026-05-01 15:24:13,-3.4844,-0.9180,8.8477,0.981262,-0.052856,0.183777,0.022522
2026-05-01 15:24:13,-3.4844,-0.9570,8.7773,0.982056,-0.052734,0.179810,0.021729
2026-05-01 15:24:14,-3.0664,-1.0352,9.3477,0.985352,-0.052246,0.161194,0.018433
2026-05-01 15:24:14,-2.9102,-0.9570,9.4258,0.985901,-0.052246,0.158020,0.018066
2026-05-01 15:24:14,-2.9102,-0.9180,9.3438,0.986389,-0.052307,0.154968,0.017883
2026-05-01 15:24:14,-2.8711,-0.9180,9.3086,0.986816,-0.052307,0.152100,0.017639
2026-05-01 15:24:14,-2.8711,-0.9570,9.2695,0.987244,-0.052307,0.149414,0.017395
2026-05-01 15:24:14,-2.7969,-0.9570,9.3867,0.987610,-0.052307,0.146912,0.017212
2026-05-01 15:24:14,-2.7969,-0.9961,9.3477,0.987732,-0.052307,0.146301,0.017151
2026-05-01 15:24:14,-2.7188,-0.8828,9.3828,0.988281,-0.052307,0.142273,0.016724
2026-05-01 15:24:14,-2.6797,-0.8828,9.3477,0.988464,-0.052246,0.141113,0.016602
2026-05-01 15:24:14,-2.6055,-0.8438,9.3867,0.989075,-0.052124,0.137085,0.015808
2026-05-01 15:24:14,-2.6055,-1.0742,9.0391,0.991394,-0.051575,0.119934,0.010620
2026-05-01 15:24:14,-2.1445,-0.8047,9.5430,0.992004,-0.051453,0.114868,0.009033
2026-05-01 15:24:14,-2.0703,-0.8438,9.5820,0.992493,-0.051392,0.110718,0.007751
2026-05-01 15:24:14,-2.0313,-1.0352,9.6875,0.992920,-0.051331,0.106934,0.006592
2026-05-01 15:24:14,-1.9141,-1.1094,9.8047,0.993347,-0.051331,0.103149,0.005493
2026-05-01 15:24:14,-1.8789,-1.1875,9.8867,0.993652,-0.051331,0.100159,0.004700
2026-05-01 15:24:14,-1.7227,-1.1094,9.7266,0.993896,-0.051270,0.097656,0.004150
2026-05-01 15:24:14,-1.7617,-1.1094,9.7695,0.994141,-0.051270,0.095337,0.003601
2026-05-01 15:24:14,-1.6836,-1.0742,9.8047,0.994324,-0.051270,0.093140,0.003174
2026-05-01 15:24:14,-1.6484,-1.0742,9.8477,0.994507,-0.051270,0.091492,0.002930
2026-05-01 15:24:14,-1.6484,-0.8438,9.3828,0.994995,-0.051147,0.085510,0.002625
2026-05-01 15:24:14,-1.4570,-0.9570,9.4648,0.995361,-0.051086,0.081177,0.001831
2026-05-01 15:24:14,-1.4922,-0.9180,9.6133,0.995605,-0.051086,0.078491,0.001160
2026-05-01 15:24:14,-1.4180,-0.8438,9.5430,0.995789,-0.051147,0.076172,0.000549
2026-05-01 15:24:14,-1.3789,-0.8438,9.6484,0.995972,-0.051147,0.073975,-0.000122
2026-05-01 15:24:14,-1.2656,-0.8828,9.5781,0.995972,-0.051147,0.073364,-0.000366
2026-05-01 15:24:14,-1.2266,-1.0352,9.5430,0.996277,-0.051086,0.069153,-0.001953
2026-05-01 15:24:14,-1.2266,-0.9570,9.5820,0.996399,-0.051086,0.067688,-0.002502
2026-05-01 15:24:14,-1.1875,-1.0742,9.7266,0.996643,-0.051086,0.063965,-0.003662
2026-05-01 15:24:14,-1.1094,-1.0352,9.6875,0.996643,-0.051086,0.063660,-0.003784
2026-05-01 15:24:14,-0.8828,-1.0352,9.6914,0.997498,-0.050964,0.048340,-0.008911
2026-05-01 15:24:14,-0.7266,-1.0352,9.6094,0.997620,-0.051025,0.045776,-0.009888
2026-05-01 15:24:14,-0.6523,-0.9570,9.4648,0.997742,-0.050964,0.042847,-0.010864
2026-05-01 15:24:14,-0.5742,-1.0742,9.4648,0.997864,-0.050964,0.039612,-0.011841
2026-05-01 15:24:14,-0.7656,-0.9570,9.4609,0.997986,-0.050964,0.036133,-0.012756
2026-05-01 15:24:14,-0.7266,-0.8438,9.3477,0.998108,-0.050903,0.032349,-0.013672
2026-05-01 15:24:14,-0.5742,-0.9570,9.5000,0.998230,-0.050842,0.027893,-0.014709
2026-05-01 15:24:14,-0.4961,-0.9180,9.5039,0.998291,-0.050964,0.023987,-0.015503
2026-05-01 15:24:14,-0.5352,-1.1094,10.0703,0.998352,-0.051025,0.020142,-0.016296
2026-05-01 15:24:14,-0.3438,-0.9180,10.0742,0.998413,-0.051208,0.016479,-0.017151
2026-05-01 15:24:14,0.0000,-0.9570,9.6484,0.998474,-0.050842,0.000671,-0.022339
2026-05-01 15:24:14,0.2305,-0.9570,10.2695,0.998413,-0.051208,-0.001770,-0.023254
2026-05-01 15:24:14,0.3047,-1.4922,10.7305,0.998352,-0.051941,-0.003906,-0.024109
2026-05-01 15:24:14,0.1523,-0.8047,9.8086,0.998291,-0.052368,-0.004395,-0.024536
2026-05-01 15:24:14,0.1133,-1.3789,10.1094,0.998291,-0.052612,-0.004700,-0.024841
2026-05-01 15:24:14,0.0391,-1.2266,9.7656,0.998291,-0.052795,-0.004761,-0.024841
2026-05-01 15:24:14,0.1914,-0.9570,9.8086,0.998291,-0.052856,-0.004761,-0.024841
2026-05-01 15:24:14,0.1523,-1.0742,9.7266,0.998291,-0.052979,-0.004822,-0.024780
2026-05-01 15:24:14,0.1133,-1.1484,9.7695,0.998291,-0.052979,-0.004822,-0.024780
2026-05-01 15:24:14,0.1523,-1.0352,9.7656,0.998291,-0.053040,-0.004822,-0.024780
2026-05-01 15:24:15,0.1523,-1.0352,9.7656,0.998230,-0.053040,-0.004883,-0.025574
2026-05-01 15:24:15,-0.2695,-1.0742,9.7266,0.998230,-0.053040,-0.004883,-0.025879
2026-05-01 15:24:15,0.1914,-1.0352,9.8086,0.998230,-0.053040,-0.004883,-0.026367
2026-05-01 15:24:15,0.1914,-1.2266,10.0000,0.998230,-0.052856,-0.004883,-0.026367
2026-05-01 15:24:15,0.1133,-0.8828,9.6484,0.998230,-0.052673,-0.004883,-0.026306
2026-05-01 15:24:15,0.1523,-0.9570,9.7305,0.998230,-0.052673,-0.004944,-0.026306
2026-05-01 15:24:15,0.1523,-1.0352,9.7656,0.998230,-0.052612,-0.004944,-0.026306
2026-05-01 15:24:15,0.1523,-1.0352,9.7656,0.998230,-0.052612,-0.004944,-0.026306
2026-05-01 15:24:15,0.1914,-1.0352,9.7266,0.998230,-0.052612,-0.005005,-0.026306
2026-05-01 15:24:15,0.1523,-1.0352,9.7656,0.998230,-0.052612,-0.005005,-0.026306
2026-05-01 15:24:15,0.1914,-1.0742,9.7656,0.998230,-0.052551,-0.005127,-0.026367
2026-05-01 15:24:15,0.1523,-0.9961,9.6914,0.998230,-0.052551,-0.005127,-0.026367
2026-05-01 15:24:15,0.1523,-0.9961,9.7656,0.998230,-0.052612,-0.005188,-0.026367
2026-05-01 15:24:15,0.1523,-1.0352,9.7656,0.998230,-0.052612,-0.005188,-0.026367
2026-05-01 15:24:15,0.1523,-1.0352,9.7656,0.998230,-0.052612,-0.005188,-0.026367
2026-05-01 15:24:15,0.1523,-1.0352,9.7305,0.998230,-0.052612,-0.005127,-0.026428
2026-05-01 15:24:15,0.1523,-1.0352,9.7656,0.998230,-0.052612,-0.005188,-0.026428
2026-05-01 15:24:15,0.1523,-1.0352,9.7656,0.998230,-0.052612,-0.005188,-0.026428
2026-05-01 15:24:15,0.1523,-1.0352,9.7656,0.998230,-0.052612,-0.005188,-0.026428
2026-05-01 15:24:15,0.1523,-1.0352,9.7305,0.998230,-0.052612,-0.005188,-0.026428
2026-05-01 15:24:15,0.1523,-0.9961,9.7305,0.998230,-0.052551,-0.005188,-0.026428
2026-05-01 15:24:15,0.1523,-1.0352,9.7656,0.998230,-0.052551,-0.005188,-0.026489
2026-05-01 15:24:15,0.1523,-0.9961,9.7656,0.998230,-0.052551,-0.005249,-0.026489
2026-05-01 15:24:15,0.1523,-0.9961,9.7656,0.998230,-0.052551,-0.005249,-0.026489
2026-05-01 15:24:15,0.1523,-1.0352,9.7656,0.998230,-0.052551,-0.005249,-0.026489
2026-05-01 15:24:15,0.1523,-0.9961,9.8047,0.998230,-0.052551,-0.005249,-0.026489
2026-05-01 15:24:15,0.1523,-1.0352,9.7305,0.998230,-0.052551,-0.005249,-0.026550
2026-05-01 15:24:15,0.1523,-1.0352,9.7656,0.998230,-0.052551,-0.005249,-0.026489
2026-05-01 15:24:15,0.1523,-0.9961,9.7305,0.998230,-0.052551,-0.005249,-0.026489
2026-05-01 15:24:15,0.1523,-1.0352,9.7656,0.998230,-0.052612,-0.005249,-0.026489
2026-05-01 15:24:15,0.1523,-1.0352,9.7656,0.998230,-0.052673,-0.005249,-0.026489
2026-05-01 15:24:15,0.1523,-0.9961,9.7656,0.998230,-0.052673,-0.005249,-0.026489
2026-05-01 15:24:15,0.1523,-1.0352,9.7305,0.998230,-0.052673,-0.005249,-0.026489
2026-05-01 15:24:15,0.1133,-1.0352,9.7305,0.998230,-0.052734,-0.005249,-0.026489
2026-05-01 15:24:15,0.1523,-1.0352,9.7656,0.998230,-0.052734,-0.005310,-0.026489
2026-05-01 15:24:15,0.1523,-1.0352,9.7656,0.998230,-0.052734,-0.005310,-0.026489
2026-05-01 15:24:15,0.1914,-0.9961,9.7695,0.998230,-0.052673,-0.005310,-0.026489
2026-05-01 15:24:15,0.1523,-0.9961,9.7656,0.998230,-0.052673,-0.005310,-0.026489
2026-05-01 15:24:15,0.1133,-1.0352,9.7656,0.998230,-0.052673,-0.005310,-0.026550
2026-05-01 15:24:15,0.1523,-1.0352,9.7656,0.998230,-0.052673,-0.005310,-0.026550
2026-05-01 15:24:15,0.1523,-0.9961,9.7656,0.998230,-0.052612,-0.005371,-0.026550
2026-05-01 15:24:15,0.1523,-1.0352,9.7656,0.998230,-0.052673,-0.005310,-0.026550
2026-05-01 15:24:15,0.1523,-1.0352,9.7305,0.998230,-0.052612,-0.005310,-0.026611
2026-05-01 15:24:15,0.1523,-1.0352,9.7305,0.998230,-0.052612,-0.005310,-0.026611
2026-05-01 15:24:15,0.1523,-1.0352,9.7656,0.998230,-0.052612,-0.005371,-0.026611
2026-05-01 15:24:15,0.1523,-0.9961,9.7305,0.998230,-0.052612,-0.005371,-0.026611
2026-05-01 15:24:15,0.1523,-1.0352,9.7656,0.998230,-0.052612,-0.005371,-0.026611
2026-05-01 15:24:15,0.1523,-0.9961,9.7656,0.998230,-0.052612,-0.005432,-0.026611
2026-05-01 15:24:15,0.1523,-0.9961,9.7305,0.998230,-0.052612,-0.005432,-0.026611
2026-05-01 15:24:16,0.1523,-1.0352,9.7656,0.998230,-0.052673,-0.005432,-0.026611
2026-05-01 15:24:16,0.1523,-1.0352,9.7656,0.998230,-0.052612,-0.005493,-0.026611
2026-05-01 15:24:16,0.1523,-0.9961,9.7656,0.998230,-0.052612,-0.005493,-0.026672
2026-05-01 15:24:16,0.1523,-0.9961,9.7305,0.998230,-0.052673,-0.005493,-0.026672
2026-05-01 15:24:16,0.1523,-1.0352,9.7656,0.998230,-0.052612,-0.005493,-0.026672
2026-05-01 15:24:16,0.1914,-0.9961,9.7266,0.998230,-0.052612,-0.005493,-0.026672
2026-05-01 15:24:16,0.1523,-1.0352,9.7656,0.998230,-0.052612,-0.005493,-0.026672
2026-05-01 15:24:16,0.1523,-0.9961,9.7656,0.998230,-0.052673,-0.005493,-0.026672
2026-05-01 15:24:16,0.1523,-1.0352,9.7656,0.998230,-0.052673,-0.005493,-0.026672
2026-05-01 15:24:16,0.1523,-1.0352,9.7656,0.998230,-0.052673,-0.005554,-0.026611
2026-05-01 15:24:16,0.1523,-1.0352,9.7305,0.998230,-0.052612,-0.005554,-0.026611
2026-05-01 15:24:16,0.1523,-1.0352,9.7656,0.998230,-0.052551,-0.005676,-0.026611
2026-05-01 15:24:16,0.1523,-0.9961,9.7656,0.998230,-0.052551,-0.005737,-0.026611
2026-05-01 15:24:16,0.1523,-1.0352,9.7656,0.998230,-0.052551,-0.005737,-0.026611
2026-05-01 15:24:16,0.1523,-0.9961,9.7305,0.998230,-0.052490,-0.005737,-0.026611
2026-05-01 15:24:16,0.1523,-0.9961,9.7656,0.998230,-0.052490,-0.005737,-0.026611
2026-05-01 15:24:16,0.1914,-1.0352,9.7695,0.998230,-0.052490,-0.005798,-0.026611
2026-05-01 15:24:16,0.1523,-1.0352,9.7656,0.998230,-0.052490,-0.005737,-0.026611
2026-05-01 15:24:16,0.1523,-1.0352,9.7305,0.998230,-0.052551,-0.005798,-0.026672
2026-05-01 15:24:16,0.1523,-1.0352,9.7305,0.998230,-0.052551,-0.005798,-0.026672
2026-05-01 15:24:16,0.1523,-0.9961,9.7305,0.998230,-0.052612,-0.005798,-0.026672
2026-05-01 15:24:16,0.1523,-1.0352,9.7656,0.998230,-0.052612,-0.005798,-0.026672
2026-05-01 15:24:16,0.1523,-1.0352,9.7656,0.998230,-0.052612,-0.005798,-0.026672
2026-05-01 15:24:16,0.1523,-0.9961,9.7656,0.998230,-0.052612,-0.005798,-0.026672
2026-05-01 15:24:16,0.4219,-0.8438,9.7695,0.998230,-0.052612,-0.005859,-0.026672
2026-05-01 15:24:16,0.0781,-1.0742,9.7695,0.998230,-0.052612,-0.005859,-0.026672
2026-05-01 15:24:16,-0.0391,-0.9961,9.7305,0.998230,-0.052612,-0.005859,-0.026733
2026-05-01 15:24:16,0.0781,-1.0742,9.7695,0.998230,-0.052612,-0.005920,-0.026672
2026-05-01 15:24:16,0.1914,-1.0352,9.7266,0.998230,-0.052551,-0.005920,-0.026672
2026-05-01 15:24:16,0.1523,-1.0352,9.7656,0.998230,-0.052551,-0.005920,-0.026672
2026-05-01 15:24:16,0.1523,-1.0352,9.7656,0.998230,-0.052551,-0.005920,-0.026672
2026-05-01 15:24:16,0.1914,-0.9961,9.7695,0.998230,-0.052551,-0.005920,-0.026794
2026-05-01 15:24:16,0.1914,-0.9961,9.7266,0.998230,-0.052551,-0.005920,-0.026733
2026-05-01 15:24:16,0.1523,-1.1094,9.8086,0.998230,-0.052551,-0.005920,-0.026733
2026-05-01 15:24:16,0.1914,-1.0352,9.8086,0.998230,-0.052490,-0.005920,-0.026733
2026-05-01 15:24:16,0.1523,-0.8828,9.6914,0.998230,-0.052429,-0.005859,-0.026733
2026-05-01 15:24:16,0.1523,-1.0352,9.7305,0.998230,-0.052429,-0.005859,-0.026733
2026-05-01 15:24:16,0.1523,-0.9961,9.7656,0.998230,-0.052368,-0.005920,-0.026733
2026-05-01 15:24:16,0.1523,-0.9961,9.7656,0.998230,-0.052368,-0.005920,-0.026733
2026-05-01 15:24:16,0.1523,-1.0352,9.7305,0.998230,-0.052368,-0.005920,-0.026733
2026-05-01 15:24:16,0.1523,-1.0352,9.7656,0.998230,-0.052307,-0.005981,-0.026733
2026-05-01 15:24:16,0.1523,-1.0352,9.7656,0.998230,-0.052246,-0.006042,-0.026672
2026-05-01 15:24:16,0.1523,-1.0352,9.7656,0.998230,-0.052246,-0.006042,-0.026672
2026-05-01 15:24:16,0.1523,-1.0352,9.7656,0.998230,-0.052185,-0.006104,-0.026733
2026-05-01 15:24:16,0.1523,-1.0742,9.7695,0.998291,-0.052185,-0.006104,-0.026733
2026-05-01 15:24:16,-0.2305,-1.4180,9.7266,0.998291,-0.052185,-0.006104,-0.026672
2026-05-01 15:24:16,0.3047,-0.8828,9.7266,0.998291,-0.052307,-0.006165,-0.025818
2026-05-01 15:24:16,0.4961,-0.7266,9.7656,0.998291,-0.052307,-0.006165,-0.025391
2026-05-01 15:24:16,0.3438,-0.8828,9.7656,0.998291,-0.052307,-0.006165,-0.025269
2026-05-01 15:24:17,0.1523,-1.0352,9.7656,0.998291,-0.052307,-0.006165,-0.025330
2026-05-01 15:24:17,0.1523,-0.9961,9.7305,0.998291,-0.052307,-0.006165,-0.025330
2026-05-01 15:24:17,0.1523,-1.0742,9.7695,0.998291,-0.052246,-0.006226,-0.025391
2026-05-01 15:24:17,0.1523,-1.0352,9.7305,0.998291,-0.052307,-0.006226,-0.025330
2026-05-01 15:24:17,0.1523,-1.0352,9.7656,0.998291,-0.052307,-0.006226,-0.025330
2026-05-01 15:24:17,0.1523,-1.0352,9.7656,0.998291,-0.052368,-0.006226,-0.025269
2026-05-01 15:24:17,0.1133,-1.1094,9.8086,0.998291,-0.052307,-0.006287,-0.025269
2026-05-01 15:24:17,0.1523,-0.9180,9.6914,0.998291,-0.052307,-0.006287,-0.025269
2026-05-01 15:24:17,0.1914,-1.0352,9.8086,0.998291,-0.052246,-0.006287,-0.025269
2026-05-01 15:24:17,0.1523,-0.9961,9.8047,0.998291,-0.052307,-0.006287,-0.025269
2026-05-01 15:24:17,0.1523,-1.0742,9.7695,0.998291,-0.052307,-0.006287,-0.025269
2026-05-01 15:24:17,0.1523,-0.9961,9.7656,0.998291,-0.052307,-0.006348,-0.025269
2026-05-01 15:24:17,0.1523,-1.0352,9.7656,0.998291,-0.052368,-0.006348,-0.025269
2026-05-01 15:24:17,0.2305,-0.9961,9.7695,0.998291,-0.052368,-0.006348,-0.025269
2026-05-01 15:24:17,0.1523,-0.9961,9.7656,0.998291,-0.052368,-0.006348,-0.025269
2026-05-01 15:24:17,0.1523,-1.0742,9.7695,0.998291,-0.052429,-0.006409,-0.025269
2026-05-01 15:24:17,0.1523,-1.0352,9.7305,0.998291,-0.052429,-0.006409,-0.025330
2026-05-01 15:24:17,0.0781,-0.9180,9.7305,0.998291,-0.052490,-0.006409,-0.025330
2026-05-01 15:24:17,0.1914,-0.9961,9.7695,0.998291,-0.052551,-0.006348,-0.025330
2026-05-01 15:24:17,0.1133,-0.9961,9.8047,0.998291,-0.052612,-0.006409,-0.025391
2026-05-01 15:24:17,0.1523,-1.0352,9.7656,0.998291,-0.052612,-0.006409,-0.025391
2026-05-01 15:24:17,0.2305,-1.1094,9.8867,0.998291,-0.052734,-0.006409,-0.025391
