Timestamp,ax,ay,az,qr,qi,qj,qk
2026-04-22 14:36:25,-0.5742,-0.5352,9.7695,0.999207,-0.027527,0.029541,-0.000793
2026-04-22 14:36:25,-0.4961,-0.4609,9.6094,0.999207,-0.027832,0.028992,-0.000610
2026-04-22 14:36:25,-0.4961,-0.4609,9.6484,0.999268,-0.026062,0.026978,0.001221
2026-04-22 14:36:25,-0.5352,-0.4961,9.7305,0.999268,-0.026123,0.027039,0.001221
2026-04-22 14:36:25,-0.4961,-0.4219,9.6523,0.999268,-0.026123,0.027039,0.001221
2026-04-22 14:36:25,-0.4961,-0.4609,9.7305,0.999268,-0.026245,0.027039,0.001221
2026-04-22 14:36:25,-0.5352,-0.4961,9.7656,0.999268,-0.026367,0.027100,0.001221
2026-04-22 14:36:25,-0.5352,-0.5352,9.6914,0.999268,-0.026428,0.027039,0.001282
2026-04-22 14:36:25,-0.4609,-0.4961,9.6914,0.999268,-0.026428,0.026917,0.001465
2026-04-22 14:36:25,-0.5352,-0.4961,9.6914,0.999268,-0.026428,0.026917,0.001465
2026-04-22 14:36:25,-0.5352,-0.4961,9.7305,0.999268,-0.026306,0.026917,0.001343
2026-04-22 14:36:25,-0.4961,-0.4961,9.7656,0.999268,-0.026367,0.026855,0.001343
2026-04-22 14:36:25,-0.4609,-0.4609,9.7305,0.999268,-0.026428,0.026855,0.001343
2026-04-22 14:36:25,-0.4961,-0.4609,9.7656,0.999268,-0.026489,0.026855,0.001343
2026-04-22 14:36:25,-0.5742,-0.5352,9.6133,0.999268,-0.026489,0.026855,0.001404
2026-04-22 14:36:25,-0.4961,-0.4961,9.6914,0.999268,-0.026428,0.026855,0.001404
2026-04-22 14:36:25,-0.5352,-0.4609,9.6484,0.999268,-0.026428,0.026794,0.001404
2026-04-22 14:36:25,-0.4609,-0.4961,9.7305,0.999268,-0.026367,0.026733,0.001465
2026-04-22 14:36:25,-0.4609,-0.4609,9.7305,0.999268,-0.026306,0.026733,0.001465
2026-04-22 14:36:25,-0.5352,-0.4609,9.7305,0.999268,-0.026245,0.026733,0.001465
2026-04-22 14:36:25,-0.4609,-0.4609,9.7305,0.999329,-0.026428,0.026367,0.001892
2026-04-22 14:36:25,-0.4961,-0.4609,9.6914,0.999329,-0.026550,0.026367,0.001892
2026-04-22 14:36:25,-0.5742,-0.5352,9.6523,0.999268,-0.026611,0.026367,0.001892
2026-04-22 14:36:25,-0.5352,-0.4961,9.6914,0.999329,-0.026550,0.026306,0.001892
2026-04-22 14:36:25,-0.4609,-0.4609,9.6094,0.999329,-0.026550,0.026306,0.001953
2026-04-22 14:36:25,-0.5352,-0.4961,9.7305,0.999329,-0.026550,0.026245,0.001953
2026-04-22 14:36:25,-0.4961,-0.4961,9.6914,0.999329,-0.026550,0.026245,0.001953
2026-04-22 14:36:25,-0.5352,-0.4961,9.7305,0.999329,-0.026550,0.026245,0.001953
2026-04-22 14:36:25,-0.4961,-0.4961,9.6094,0.999329,-0.026611,0.026245,0.002014
2026-04-22 14:36:25,-0.4961,-0.4961,9.7305,0.999268,-0.026672,0.026306,0.002014
2026-04-22 14:36:25,-0.4609,-0.4961,9.7305,0.999268,-0.026794,0.026428,0.002075
2026-04-22 14:36:25,-0.5742,-0.4961,9.7266,0.999268,-0.026794,0.026367,0.002197
2026-04-22 14:36:25,-0.3828,-0.4609,9.6914,0.999268,-0.026794,0.026245,0.002197
2026-04-22 14:36:25,-0.3828,-0.4609,9.7305,0.999268,-0.026855,0.026184,0.002197
2026-04-22 14:36:25,-0.3438,-0.4961,9.7305,0.999268,-0.026978,0.026306,0.002197
2026-04-22 14:36:25,-0.5742,-0.6133,9.6875,0.999268,-0.026978,0.026306,0.002197
2026-04-22 14:36:25,-0.5742,-0.5742,9.6914,0.999268,-0.026978,0.026367,0.002258
2026-04-22 14:36:25,-0.4961,-0.4609,9.7656,0.999268,-0.026978,0.026367,0.002258
2026-04-22 14:36:25,-0.5742,-0.4961,9.6875,0.999268,-0.026978,0.026367,0.002258
2026-04-22 14:36:25,-0.4961,-0.4961,9.6484,0.999268,-0.026978,0.026367,0.002197
2026-04-22 14:36:26,-0.5352,-0.4609,9.6914,0.999268,-0.027161,0.026245,0.002319
2026-04-22 14:36:26,-0.5352,-0.5742,9.6875,0.999268,-0.027100,0.026062,0.002319
2026-04-22 14:36:26,-0.4219,-0.4219,9.8867,0.999268,-0.027100,0.026001,0.002380
2026-04-22 14:36:26,-0.4219,-0.4961,9.8438,0.999268,-0.027100,0.025879,0.002441
2026-04-22 14:36:26,-0.4961,-0.4961,9.6914,0.999268,-0.027100,0.025818,0.002441
2026-04-22 14:36:26,-0.3828,-0.4609,9.7305,0.999268,-0.027100,0.025818,0.002441
2026-04-22 14:36:26,-0.4609,-0.4961,9.7305,0.999268,-0.027222,0.025818,0.002502
2026-04-22 14:36:26,-0.5352,-0.5352,9.6914,0.999268,-0.027344,0.025879,0.002563
2026-04-22 14:36:26,-0.5352,-0.5352,9.6484,0.999268,-0.027405,0.025879,0.002563
2026-04-22 14:36:26,-0.2695,-0.3047,9.6133,0.999268,-0.027466,0.025818,0.002686
2026-04-22 14:36:26,-0.5352,-0.5352,9.6484,0.999268,-0.027344,0.025940,0.002625
2026-04-22 14:36:26,-0.4961,-0.5352,9.7305,0.999268,-0.027588,0.026123,0.002502
2026-04-22 14:36:26,-0.5352,-0.5352,9.6094,0.999268,-0.027649,0.026123,0.002502
2026-04-22 14:36:26,-0.5352,-0.5352,9.6914,0.999268,-0.027649,0.026306,0.002502
2026-04-22 14:36:26,-0.4961,-0.4961,9.6484,0.999268,-0.027588,0.026367,0.002441
2026-04-22 14:36:26,-0.4609,-0.4609,9.7305,0.999268,-0.027649,0.026428,0.002441
2026-04-22 14:36:26,-0.5352,-0.5352,9.6914,0.999268,-0.027710,0.026489,0.002502
2026-04-22 14:36:26,-0.5352,-0.5352,9.6914,0.999268,-0.027771,0.026489,0.002502
2026-04-22 14:36:26,-0.4961,-0.5352,9.6914,0.999268,-0.027771,0.026489,0.002502
2026-04-22 14:36:26,-0.4609,-0.4219,9.8086,0.999268,-0.027649,0.026550,0.002563
2026-04-22 14:36:26,-0.4609,-0.4609,9.6914,0.999268,-0.027588,0.026001,0.002625
2026-04-22 14:36:26,-0.4961,-0.5352,9.6484,0.999268,-0.027588,0.025940,0.002625
2026-04-22 14:36:26,-0.5742,-0.6133,9.7266,0.999268,-0.027588,0.025940,0.002625
2026-04-22 14:36:26,-0.4961,-0.4961,9.7656,0.999268,-0.027466,0.025879,0.002625
2026-04-22 14:36:26,-0.4219,-0.4609,9.7695,0.999268,-0.027405,0.025757,0.002563
2026-04-22 14:36:26,-0.4961,-0.4961,9.6484,0.999268,-0.027405,0.025635,0.002502
2026-04-22 14:36:26,-0.4219,-0.5352,9.6523,0.999268,-0.027344,0.025574,0.002441
2026-04-22 14:36:26,-0.3438,-0.4961,9.6914,0.999329,-0.027283,0.025452,0.002319
2026-04-22 14:36:26,-0.3828,-0.4961,9.7656,0.999329,-0.027161,0.025452,0.002258
2026-04-22 14:36:26,-0.5742,-0.4961,9.7695,0.999329,-0.027100,0.025452,0.002258
2026-04-22 14:36:26,-0.5352,-0.5352,9.6914,0.999329,-0.026978,0.024902,0.002258
2026-04-22 14:36:26,-0.4609,-0.4961,9.6484,0.999329,-0.027039,0.024780,0.002258
2026-04-22 14:36:26,-0.4961,-0.5352,9.7305,0.999329,-0.027039,0.024719,0.002197
2026-04-22 14:36:26,-0.5352,-0.5352,9.6914,0.999329,-0.026917,0.024719,0.002197
2026-04-22 14:36:26,-0.4961,-0.4961,9.7656,0.999329,-0.026855,0.024536,0.002197
2026-04-22 14:36:26,-0.4961,-0.4961,9.7656,0.999329,-0.026733,0.024353,0.002136
2026-04-22 14:36:26,-0.4609,-0.4609,9.7305,0.999329,-0.026733,0.024170,0.002136
2026-04-22 14:36:26,-0.4219,-0.4961,9.6875,0.999329,-0.026733,0.024170,0.002136
2026-04-22 14:36:26,-0.5742,-0.6133,9.6875,0.999329,-0.026733,0.024048,0.002136
2026-04-22 14:36:26,-0.4219,-0.4609,9.6875,0.999329,-0.026672,0.023926,0.002075
2026-04-22 14:36:26,-0.4219,-0.4961,9.6875,0.999329,-0.026733,0.023987,0.002258
2026-04-22 14:36:26,-0.4609,-0.5352,9.6484,0.999329,-0.026733,0.023987,0.002258
2026-04-22 14:36:26,-0.4609,-0.4961,9.7656,0.999329,-0.026733,0.023987,0.002258
2026-04-22 14:36:27,-0.4961,-0.4961,9.6484,0.999329,-0.026672,0.023987,0.002319
2026-04-22 14:36:27,-0.4219,-0.4961,9.7695,0.999329,-0.026733,0.023987,0.002319
2026-04-22 14:36:27,-0.4609,-0.4609,9.7305,0.999329,-0.026794,0.023987,0.002380
2026-04-22 14:36:27,-0.5352,-0.4961,9.6484,0.999329,-0.026855,0.024048,0.002380
2026-04-22 14:36:27,-0.4961,-0.4961,9.7305,0.999329,-0.026855,0.024048,0.002380
2026-04-22 14:36:27,-0.5352,-0.5742,9.6133,0.999329,-0.026917,0.024048,0.002319
2026-04-22 14:36:27,-0.4219,-0.4961,9.6875,0.999329,-0.026978,0.023987,0.002319
2026-04-22 14:36:27,-0.4219,-0.4961,9.7266,0.999329,-0.027161,0.024048,0.002380
2026-04-22 14:36:27,-0.5352,-0.5352,9.6914,0.999329,-0.027161,0.024170,0.002380
2026-04-22 14:36:27,-0.4219,-0.4609,9.7266,0.999329,-0.027222,0.024170,0.002441
2026-04-22 14:36:27,-0.4609,-0.4961,9.7305,0.999329,-0.027222,0.024170,0.002502
2026-04-22 14:36:27,-0.5352,-0.5352,9.6484,0.999329,-0.027283,0.024109,0.002563
2026-04-22 14:36:27,-0.4609,-0.4961,9.7656,0.999329,-0.027222,0.024048,0.002563
2026-04-22 14:36:27,-0.4219,-0.4961,9.7266,0.999329,-0.027100,0.023987,0.002563
2026-04-22 14:36:27,-0.4609,-0.4961,9.6914,0.999329,-0.027039,0.023926,0.002563
2026-04-22 14:36:27,-0.4219,-0.4961,9.6523,0.999329,-0.026978,0.023865,0.002625
2026-04-22 14:36:27,-0.4219,-0.4961,9.6875,0.999329,-0.026978,0.023865,0.002625
2026-04-22 14:36:27,-0.3438,-0.4961,9.5430,0.999329,-0.027039,0.023987,0.002686
2026-04-22 14:36:27,-0.4219,-0.4609,9.8828,0.999329,-0.026917,0.023865,0.002686
2026-04-22 14:36:27,-0.4961,-0.5742,9.6523,0.999329,-0.026978,0.023804,0.002686
2026-04-22 14:36:27,-0.3438,-0.3828,9.8047,0.999329,-0.026978,0.023804,0.002686
2026-04-22 14:36:27,-0.3438,-0.4609,10.2305,0.999329,-0.027039,0.023743,0.002808
2026-04-22 14:36:27,-0.4961,-0.5742,9.6133,0.999329,-0.027100,0.023621,0.002930
2026-04-22 14:36:27,-0.3828,-0.4609,9.7305,0.999329,-0.027100,0.023499,0.002930
2026-04-22 14:36:27,-0.4219,-0.5352,9.6523,0.999329,-0.027161,0.023376,0.002991
2026-04-22 14:36:27,-0.4961,-0.5742,9.6133,0.999329,-0.027100,0.023315,0.002991
2026-04-22 14:36:27,-0.4609,-0.4961,9.7305,0.999390,-0.026978,0.023132,0.002930
2026-04-22 14:36:27,-0.3828,-0.4609,9.6094,0.999390,-0.026978,0.022522,0.003113
2026-04-22 14:36:27,-0.4961,-0.5742,9.6875,0.999390,-0.027039,0.022644,0.002991
2026-04-22 14:36:27,-0.5352,-0.5352,9.7305,0.999390,-0.027039,0.022583,0.003052
2026-04-22 14:36:27,-0.4609,-0.4961,9.6914,0.999390,-0.027039,0.022583,0.003052
2026-04-22 14:36:27,-0.3828,-0.4961,9.6914,0.999390,-0.027100,0.022583,0.002991
2026-04-22 14:36:27,-0.4609,-0.5352,9.7656,0.999390,-0.027222,0.022583,0.002930
2026-04-22 14:36:27,-0.4609,-0.4961,9.6914,0.999390,-0.027222,0.022583,0.002930
2026-04-22 14:36:27,-0.4609,-0.5352,9.6914,0.999390,-0.027283,0.022522,0.002930
2026-04-22 14:36:27,-0.4219,-0.5352,9.6875,0.999390,-0.027283,0.022461,0.002930
2026-04-22 14:36:27,-0.4219,-0.5742,9.6484,0.999390,-0.027283,0.022461,0.002930
2026-04-22 14:36:27,-0.4609,-0.4961,9.7305,0.999390,-0.027222,0.021912,0.003235
2026-04-22 14:36:27,-0.3828,-0.4609,9.7305,0.999390,-0.027161,0.021790,0.003235
2026-04-22 14:36:27,-0.4219,-0.4961,9.7266,0.999390,-0.027161,0.021606,0.003235
2026-04-22 14:36:27,-0.4219,-0.5352,9.6523,0.999390,-0.027222,0.021606,0.003235
2026-04-22 14:36:27,-0.4219,-0.5352,9.6875,0.999390,-0.027283,0.021423,0.003357
2026-04-22 14:36:28,-0.4219,-0.5352,9.6875,0.999390,-0.027222,0.021362,0.003357
2026-04-22 14:36:28,-0.5352,-0.5742,9.7266,0.999390,-0.027222,0.021362,0.003357
2026-04-22 14:36:28,-0.3438,-0.4609,9.7656,0.999390,-0.027161,0.021118,0.003357
2026-04-22 14:36:28,-0.3438,-0.4961,9.7305,0.999390,-0.027100,0.021057,0.003418
2026-04-22 14:36:28,-0.3438,-0.4961,9.6484,0.999390,-0.027100,0.020935,0.003418
2026-04-22 14:36:28,-0.4609,-0.5352,9.6914,0.999390,-0.027161,0.020691,0.003296
2026-04-22 14:36:28,-0.3828,-0.5742,9.7266,0.999390,-0.026978,0.020569,0.003296
2026-04-22 14:36:28,-0.3047,-0.4219,9.6484,0.999451,-0.026917,0.020447,0.003357
2026-04-22 14:36:28,-0.3828,-0.4609,9.7305,0.999451,-0.026917,0.020447,0.003357
2026-04-22 14:36:28,-0.4609,-0.5742,9.6875,0.999390,-0.027100,0.020569,0.003479
2026-04-22 14:36:28,-0.4219,-0.5742,9.7305,0.999390,-0.027161,0.020630,0.003479
2026-04-22 14:36:28,-0.4219,-0.5352,9.6523,0.999390,-0.027222,0.020630,0.003479
2026-04-22 14:36:28,-0.3828,-0.5352,9.7305,0.999390,-0.027344,0.020630,0.003601
2026-04-22 14:36:28,-0.4219,-0.5352,9.6875,0.999390,-0.027344,0.020569,0.003601
2026-04-22 14:36:28,-0.4219,-0.5352,9.6523,0.999390,-0.027344,0.020508,0.003601
2026-04-22 14:36:28,-0.3438,-0.4961,9.6914,0.999451,-0.027161,0.020142,0.003601
2026-04-22 14:36:28,-0.4219,-0.4961,9.7266,0.999451,-0.027100,0.020142,0.003540
2026-04-22 14:36:28,-0.3828,-0.4961,9.7305,0.999451,-0.026978,0.020081,0.003540
2026-04-22 14:36:28,-0.3828,-0.4961,9.7305,0.999451,-0.026917,0.020020,0.003540
2026-04-22 14:36:28,-0.3828,-0.5352,9.6914,0.999451,-0.026917,0.020081,0.003479
2026-04-22 14:36:28,-0.3828,-0.4961,9.7305,0.999451,-0.026917,0.020020,0.003479
2026-04-22 14:36:28,-0.4219,-0.5352,9.6875,0.999451,-0.026917,0.019958,0.003479
2026-04-22 14:36:28,-0.4609,-0.5352,9.6914,0.999451,-0.026978,0.019958,0.003418
2026-04-22 14:36:28,-0.3438,-0.5352,9.7305,0.999451,-0.026917,0.019836,0.003357
2026-04-22 14:36:28,-0.3438,-0.4961,9.6914,0.999451,-0.026855,0.019836,0.003357
2026-04-22 14:36:28,-0.4219,-0.6133,9.7266,0.999451,-0.027039,0.019836,0.003479
2026-04-22 14:36:28,-0.4219,-0.4961,9.6875,0.999451,-0.026917,0.019775,0.003540
2026-04-22 14:36:28,-0.3828,-0.4961,9.7305,0.999451,-0.026855,0.019714,0.003540
2026-04-22 14:36:28,-0.3828,-0.5352,9.6914,0.999451,-0.026794,0.019714,0.003540
2026-04-22 14:36:28,-0.3828,-0.4219,9.7266,0.999451,-0.026733,0.019714,0.003540
2026-04-22 14:36:28,-0.3828,-0.4961,9.7305,0.999451,-0.026794,0.019653,0.003540
2026-04-22 14:36:28,-0.4219,-0.5352,9.7266,0.999451,-0.026917,0.019653,0.003662
2026-04-22 14:36:28,-0.3828,-0.5352,9.7656,0.999451,-0.026917,0.019592,0.003662
2026-04-22 14:36:28,-0.3828,-0.5352,9.7305,0.999451,-0.026917,0.019470,0.003723
2026-04-22 14:36:28,-0.3828,-0.4961,9.7305,0.999451,-0.026794,0.019409,0.003723
2026-04-22 14:36:28,-0.3828,-0.5352,9.6914,0.999451,-0.026917,0.019714,0.003540
2026-04-22 14:36:28,-0.4961,-0.5742,9.6523,0.999451,-0.026917,0.019653,0.003662
2026-04-22 14:36:28,-0.3828,-0.4961,9.7305,0.999451,-0.026855,0.019653,0.003662
2026-04-22 14:36:28,-0.4609,-0.8828,9.8867,0.999451,-0.026733,0.019470,0.003723
2026-04-22 14:36:28,-0.1133,0.0000,9.5430,0.999451,-0.026794,0.019409,0.003784
2026-04-22 14:36:28,-0.4961,-0.6523,9.8047,0.999451,-0.026733,0.019348,0.003784
2026-04-22 14:36:28,-0.4219,-0.5742,9.6914,0.999451,-0.026672,0.019287,0.003784
2026-04-22 14:36:28,-0.3828,-0.4961,9.6914,0.999451,-0.026611,0.019226,0.003845
2026-04-22 14:36:29,-0.3047,-0.4609,9.6875,0.999451,-0.026611,0.019226,0.003845
2026-04-22 14:36:29,-0.4219,-0.5352,9.7266,0.999451,-0.026672,0.019287,0.003906
2026-04-22 14:36:29,-0.3438,-0.5352,9.7305,0.999451,-0.026611,0.019226,0.003784
2026-04-22 14:36:29,-0.3047,-0.5352,9.6875,0.999451,-0.026672,0.019226,0.003784
2026-04-22 14:36:29,-0.3047,-0.5352,9.6875,0.999451,-0.026672,0.019287,0.003784
2026-04-22 14:36:29,-0.3438,-0.5352,9.6914,0.999451,-0.026672,0.019348,0.003845
2026-04-22 14:36:29,-0.3438,-0.5352,9.7305,0.999451,-0.026672,0.019348,0.003845
2026-04-22 14:36:29,-0.4609,-0.5352,9.7656,0.999451,-0.026611,0.019348,0.003845
2026-04-22 14:36:29,-0.4219,-0.4609,9.6875,0.999451,-0.026611,0.019287,0.003784
2026-04-22 14:36:29,-0.3828,-0.4961,9.6484,0.999451,-0.026550,0.019287,0.003784
2026-04-22 14:36:29,-0.3438,-0.4609,9.7305,0.999451,-0.026550,0.019287,0.003845
2026-04-22 14:36:29,-0.4219,-0.5742,9.6914,0.999451,-0.026550,0.019226,0.003845
2026-04-22 14:36:29,-0.3438,-0.4219,9.7266,0.999451,-0.026367,0.019165,0.003784
2026-04-22 14:36:29,-0.4219,-0.4961,9.6523,0.999451,-0.026489,0.019165,0.003845
2026-04-22 14:36:29,-0.3828,-0.5742,9.7266,0.999451,-0.026611,0.019165,0.003906
2026-04-22 14:36:29,-0.4219,-0.5352,9.6875,0.999451,-0.026611,0.019165,0.003967
2026-04-22 14:36:29,-0.3828,-0.4961,9.6914,0.999451,-0.026489,0.019104,0.004028
2026-04-22 14:36:29,-0.3438,-0.4609,9.6914,0.999451,-0.026428,0.019043,0.003967
2026-04-22 14:36:29,-0.4219,-0.4961,9.7266,0.999451,-0.026489,0.018982,0.003967
2026-04-22 14:36:29,-0.3828,-0.4609,9.7305,0.999451,-0.026489,0.018921,0.004028
2026-04-22 14:36:29,-0.4219,-0.5352,9.6875,0.999451,-0.026489,0.018799,0.004089
2026-04-22 14:36:29,-0.3438,-0.5352,9.6914,0.999451,-0.026489,0.018738,0.004089
2026-04-22 14:36:29,-0.2305,-0.4609,9.7695,0.999451,-0.026245,0.018677,0.003845
2026-04-22 14:36:29,-0.3438,-0.5352,9.6914,0.999451,-0.026245,0.018677,0.003906
2026-04-22 14:36:29,-0.4219,-0.5352,9.7266,0.999451,-0.026245,0.018616,0.003967
2026-04-22 14:36:29,-0.3438,-0.4609,9.6914,0.999451,-0.026184,0.018555,0.003967
2026-04-22 14:36:29,-0.3438,-0.4609,9.6914,0.999512,-0.026001,0.018494,0.003906
2026-04-22 14:36:29,-0.3438,-0.4961,9.6094,0.999512,-0.026001,0.018494,0.003906
2026-04-22 14:36:29,-0.3828,-0.4961,9.7305,0.999512,-0.026001,0.018555,0.003906
2026-04-22 14:36:29,-0.4219,-0.4961,9.6875,0.999512,-0.025940,0.018494,0.003906
2026-04-22 14:36:29,-0.4219,-0.4961,9.7695,0.999512,-0.025879,0.018433,0.003967
2026-04-22 14:36:29,-0.3047,-0.4219,9.6484,0.999512,-0.025818,0.018311,0.004028
2026-04-22 14:36:29,-0.2695,-0.4609,9.8047,0.999512,-0.025818,0.018372,0.004028
2026-04-22 14:36:29,-0.4219,-0.5352,9.7266,0.999512,-0.025879,0.018433,0.004089
2026-04-22 14:36:29,-0.3438,-0.4961,9.6914,0.999512,-0.025818,0.018433,0.004089
2026-04-22 14:36:29,-0.3047,-0.4609,9.7266,0.999512,-0.025757,0.018433,0.004089
2026-04-22 14:36:29,-0.3828,-0.5352,9.6484,0.999512,-0.025696,0.018433,0.004089
2026-04-22 14:36:29,-0.3438,-0.4961,9.7305,0.999512,-0.025757,0.018494,0.004028
2026-04-22 14:36:29,-0.3047,-0.4961,9.6875,0.999512,-0.025818,0.018555,0.004028
2026-04-22 14:36:29,-0.4219,-0.5352,9.6875,0.999512,-0.025818,0.018555,0.003967
2026-04-22 14:36:29,-0.3828,-0.4961,9.7305,0.999512,-0.025818,0.018555,0.003967
2026-04-22 14:36:29,-0.2695,-0.4609,9.6914,0.999512,-0.025696,0.018494,0.003967
2026-04-22 14:36:30,-0.3828,-0.5352,9.6914,0.999512,-0.025696,0.018677,0.004211
2026-04-22 14:36:30,-0.3828,-0.4609,9.6484,0.999512,-0.025696,0.018677,0.004211
2026-04-22 14:36:30,-0.3047,-0.4219,9.6914,0.999512,-0.025696,0.018616,0.004150
2026-04-22 14:36:30,-0.3438,-0.4609,9.7656,0.999512,-0.025696,0.018555,0.004150
2026-04-22 14:36:30,-0.2695,-0.4609,9.7305,0.999512,-0.025696,0.018494,0.004150
2026-04-22 14:36:30,-0.3047,-0.4961,9.7695,0.999512,-0.025635,0.018494,0.004089
2026-04-22 14:36:30,-0.4219,-0.4961,9.6875,0.999512,-0.025635,0.018494,0.004150
2026-04-22 14:36:30,-0.3828,-0.4961,9.6914,0.999512,-0.025635,0.018555,0.004150
2026-04-22 14:36:30,-0.3828,-0.4609,9.7656,0.999512,-0.025635,0.018555,0.004150
2026-04-22 14:36:30,-0.4219,-0.4961,9.6523,0.999512,-0.025696,0.018494,0.004089
2026-04-22 14:36:30,-0.4219,-0.4961,9.7266,0.999512,-0.025696,0.018555,0.003967
2026-04-22 14:36:30,-0.4219,-0.4961,9.7695,0.999512,-0.025696,0.018555,0.003967
2026-04-22 14:36:30,-0.3438,-0.4609,9.6914,0.999512,-0.025635,0.018372,0.004150
2026-04-22 14:36:30,-0.2695,-0.4219,9.7266,0.999512,-0.025574,0.018250,0.004150
2026-04-22 14:36:30,-0.3047,-0.4961,9.6875,0.999512,-0.025635,0.018250,0.004089
2026-04-22 14:36:30,-0.3047,-0.4609,9.7266,0.999512,-0.025696,0.018372,0.004150
2026-04-22 14:36:30,-0.3438,-0.4609,9.7305,0.999512,-0.025757,0.018433,0.004211
2026-04-22 14:36:30,-0.4961,-0.5742,9.7266,0.999512,-0.025696,0.018433,0.004272
2026-04-22 14:36:30,-0.3438,-0.4609,9.6914,0.999512,-0.025635,0.018311,0.004395
2026-04-22 14:36:30,-0.3828,-0.4961,9.6914,0.999512,-0.025574,0.018250,0.004395
2026-04-22 14:36:30,-0.3438,-0.4961,9.7656,0.999512,-0.025513,0.018433,0.004333
2026-04-22 14:36:30,-0.3828,-0.5352,9.6484,0.999512,-0.025574,0.018494,0.004333
2026-04-22 14:36:30,-0.3438,-0.4609,9.6914,0.999512,-0.025574,0.018555,0.004272
2026-04-22 14:36:30,-0.3047,-0.4609,9.6875,0.999512,-0.025635,0.018677,0.004272
2026-04-22 14:36:30,-0.3828,-0.5352,9.6914,0.999512,-0.025696,0.018738,0.004272
2026-04-22 14:36:30,-0.4961,-0.5742,9.7266,0.999512,-0.025696,0.018799,0.004272
2026-04-22 14:36:30,-0.4219,-0.5352,9.6523,0.999512,-0.025696,0.018799,0.004272
2026-04-22 14:36:30,-0.3047,-0.4219,9.7656,0.999512,-0.025757,0.018860,0.004272
2026-04-22 14:36:30,-0.3438,-0.4961,9.6914,0.999451,-0.025757,0.018921,0.004272
2026-04-22 14:36:30,-0.4219,-0.4961,9.7266,0.999451,-0.025818,0.018982,0.004211
2026-04-22 14:36:30,-0.3438,-0.4961,9.6914,0.999512,-0.025513,0.018799,0.004150
2026-04-22 14:36:30,-0.3438,-0.5352,9.6484,0.999512,-0.025635,0.018799,0.004150
2026-04-22 14:36:30,-0.3438,-0.5352,9.7305,0.999512,-0.025635,0.018860,0.004150
2026-04-22 14:36:30,-0.3438,-0.4609,9.7305,0.999451,-0.025696,0.018921,0.004211
2026-04-22 14:36:30,-0.4961,-0.5352,9.7305,0.999451,-0.025757,0.019043,0.004272
2026-04-22 14:36:30,-0.4609,-0.4961,9.7656,0.999451,-0.025818,0.019043,0.004211
2026-04-22 14:36:30,-0.4219,-0.4609,9.7695,0.999451,-0.025879,0.019043,0.004211
2026-04-22 14:36:30,-0.4219,-0.4961,9.6875,0.999451,-0.025940,0.019104,0.004150
2026-04-22 14:36:30,-0.3828,-0.4609,9.6914,0.999451,-0.026001,0.019104,0.004089
2026-04-22 14:36:30,-0.3828,-0.4961,9.7656,0.999451,-0.026001,0.019104,0.004089
2026-04-22 14:36:31,-0.4961,-0.5352,9.7305,0.999451,-0.026001,0.018860,0.004089
2026-04-22 14:36:31,-0.3438,-0.4961,9.8477,0.999451,-0.026062,0.018860,0.004089
2026-04-22 14:36:31,-0.3828,-0.4961,9.7305,0.999451,-0.026001,0.018616,0.004089
2026-04-22 14:36:31,-0.3438,-0.4609,9.6484,0.999512,-0.025940,0.018494,0.004150
2026-04-22 14:36:31,-0.3438,-0.4609,9.6914,0.999512,-0.025940,0.018433,0.004150
2026-04-22 14:36:31,-0.3438,-0.5352,9.6484,0.999512,-0.025879,0.018372,0.004150
2026-04-22 14:36:31,-0.3438,-0.4961,9.6914,0.999512,-0.025879,0.018372,0.004150
2026-04-22 14:36:31,-0.3438,-0.4961,9.7305,0.999512,-0.025879,0.018372,0.004211
2026-04-22 14:36:31,-0.3047,-0.4961,9.7695,0.999512,-0.025879,0.018372,0.004211
2026-04-22 14:36:31,-0.3828,-0.4961,9.6914,0.999512,-0.025818,0.018372,0.004211
2026-04-22 14:36:31,-0.2695,-0.4609,9.6914,0.999512,-0.025391,0.017883,0.004456
2026-04-22 14:36:31,-0.3828,-0.4609,9.7305,0.999512,-0.025391,0.017944,0.004456
2026-04-22 14:36:31,-0.4219,-0.5352,9.6875,0.999512,-0.025391,0.018005,0.004517
2026-04-22 14:36:31,-0.4219,-0.4609,9.7266,0.999512,-0.025452,0.018005,0.004517
2026-04-22 14:36:31,-0.3438,-0.4961,9.7305,0.999512,-0.025574,0.017944,0.004517
2026-04-22 14:36:31,-0.3828,-0.5742,9.6523,0.999512,-0.025635,0.017944,0.004517
2026-04-22 14:36:31,-0.3438,-0.5352,9.7305,0.999512,-0.025635,0.017944,0.004456
2026-04-22 14:36:31,-0.2695,-0.4609,9.7305,0.999512,-0.025574,0.018005,0.004456
2026-04-22 14:36:31,-0.3828,-0.4609,9.7656,0.999512,-0.025452,0.018066,0.004456
2026-04-22 14:36:31,-0.3828,-0.4609,9.7656,0.999512,-0.025452,0.018188,0.004456
2026-04-22 14:36:31,-0.2695,-0.4219,9.7695,0.999512,-0.025452,0.018250,0.004517
2026-04-22 14:36:31,-0.4219,-0.4961,9.6875,0.999512,-0.025574,0.018250,0.004578
2026-04-22 14:36:31,-0.4219,-0.5352,9.6875,0.999512,-0.025513,0.018188,0.004578
2026-04-22 14:36:31,-0.1914,-0.4609,9.6875,0.999512,-0.025330,0.018005,0.004517
2026-04-22 14:36:31,-0.2305,-0.4609,9.6875,0.999512,-0.025330,0.018066,0.004517
2026-04-22 14:36:31,-0.3438,-0.5352,9.7305,0.999512,-0.025330,0.018127,0.004517
2026-04-22 14:36:31,-0.3828,-0.4961,9.6914,0.999512,-0.025330,0.018127,0.004517
2026-04-22 14:36:31,-0.3438,-0.4219,9.7266,0.999512,-0.025330,0.018127,0.004517
2026-04-22 14:36:31,-0.3828,-0.4609,9.6914,0.999512,-0.025391,0.018188,0.004517
2026-04-22 14:36:31,-0.3828,-0.4961,9.7305,0.999512,-0.025452,0.018188,0.004517
2026-04-22 14:36:31,-0.4219,-0.4961,9.7266,0.999512,-0.025513,0.017761,0.004578
2026-04-22 14:36:31,-0.3828,-0.5352,9.6914,0.999512,-0.025513,0.017700,0.004578
2026-04-22 14:36:31,-0.3047,-0.4961,9.6875,0.999512,-0.025452,0.017639,0.004578
2026-04-22 14:36:31,-0.3438,-0.4219,9.7266,0.999512,-0.025452,0.017639,0.004578
2026-04-22 14:36:31,-0.3828,-0.4961,9.7656,0.999512,-0.025513,0.017578,0.004639
2026-04-22 14:36:31,-0.3047,-0.4219,9.7305,0.999512,-0.025513,0.017578,0.004639
2026-04-22 14:36:31,-0.3828,-0.4961,9.6484,0.999512,-0.025574,0.017578,0.004639
2026-04-22 14:36:31,-0.3438,-0.4961,9.7656,0.999512,-0.025635,0.017578,0.004639
2026-04-22 14:36:31,-0.3438,-0.5352,9.8047,0.999512,-0.025635,0.017517,0.004639
2026-04-22 14:36:31,-0.2695,-0.4219,9.6875,0.999512,-0.025574,0.017517,0.004639
2026-04-22 14:36:32,-0.3828,-0.4961,9.6914,0.999512,-0.025391,0.017639,0.004578
2026-04-22 14:36:32,-0.3438,-0.4961,9.7305,0.999512,-0.025452,0.017761,0.004639
2026-04-22 14:36:32,-0.3438,-0.4609,9.7305,0.999512,-0.025452,0.017822,0.004639
2026-04-22 14:36:32,-0.3438,-0.4219,9.6875,0.999512,-0.025574,0.017822,0.004700
2026-04-22 14:36:32,-0.3438,-0.4961,9.7305,0.999512,-0.025635,0.017822,0.004761
2026-04-22 14:36:32,-0.3438,-0.4961,9.7305,0.999512,-0.025696,0.017822,0.004761
2026-04-22 14:36:32,-0.3828,-0.5352,9.7305,0.999512,-0.025635,0.017761,0.004761
2026-04-22 14:36:32,-0.3047,-0.4609,9.7266,0.999512,-0.025635,0.017700,0.004822
2026-04-22 14:36:32,-0.3047,-0.4609,9.7266,0.999512,-0.025574,0.017578,0.004883
2026-04-22 14:36:32,-0.3828,-0.4961,9.7305,0.999512,-0.025574,0.017517,0.004944
2026-04-22 14:36:32,-0.3047,-0.4219,9.7656,0.999512,-0.025513,0.017334,0.005005
2026-04-22 14:36:32,-0.3828,-0.4609,9.7656,0.999512,-0.025635,0.017395,0.005066
2026-04-22 14:36:32,-0.4219,-0.5352,9.6875,0.999512,-0.025635,0.017395,0.005066
2026-04-22 14:36:32,-0.3047,-0.4961,9.7266,0.999512,-0.025574,0.017334,0.005066
2026-04-22 14:36:32,-0.3047,-0.4961,9.6875,0.999512,-0.025574,0.017273,0.005066
2026-04-22 14:36:32,-0.3438,-0.5352,9.7305,0.999512,-0.025513,0.017273,0.005066
2026-04-22 14:36:32,-0.3438,-0.4961,9.7305,0.999512,-0.025452,0.017273,0.005066
2026-04-22 14:36:32,-0.4219,-0.4961,9.6523,0.999512,-0.025513,0.017273,0.005066
2026-04-22 14:36:32,-0.3438,-0.4961,9.7656,0.999512,-0.025452,0.017273,0.005066
2026-04-22 14:36:32,-0.3047,-0.3828,9.6875,0.999512,-0.025391,0.017212,0.004944
2026-04-22 14:36:32,-0.4961,-0.5352,9.7656,0.999512,-0.026001,0.017395,0.005066
2026-04-22 14:36:32,-0.2695,-0.4609,9.6914,0.999512,-0.026001,0.017273,0.005127
2026-04-22 14:36:32,-0.3047,-0.5352,9.6875,0.999512,-0.026062,0.017273,0.005127
2026-04-22 14:36:32,-0.3047,-0.4609,9.7266,0.999512,-0.026123,0.017273,0.005127
2026-04-22 14:36:32,-0.3828,-0.5742,9.7266,0.999512,-0.026184,0.017273,0.005188
2026-04-22 14:36:32,-0.3438,-0.4961,9.7305,0.999512,-0.026123,0.017212,0.005127
2026-04-22 14:36:32,-0.3438,-0.4961,9.7305,0.999512,-0.026123,0.017212,0.005127
2026-04-22 14:36:32,-0.3047,-0.4961,9.6875,0.999512,-0.026123,0.017212,0.005127
2026-04-22 14:36:32,-0.3047,-0.4961,9.7266,0.999512,-0.026123,0.017212,0.005127
2026-04-22 14:36:32,-0.4219,-0.5742,9.6484,0.999512,-0.026123,0.017212,0.005127
2026-04-22 14:36:32,-0.3438,-0.4609,9.6484,0.999512,-0.026123,0.017273,0.005127
2026-04-22 14:36:32,-0.3828,-0.4609,9.7305,0.999512,-0.026123,0.017273,0.005127
2026-04-22 14:36:32,-0.2695,-0.4609,9.6484,0.999512,-0.026123,0.017273,0.005127
2026-04-22 14:36:32,-0.3047,-0.4961,9.7266,0.999512,-0.026123,0.017273,0.005127
2026-04-22 14:36:32,-0.4219,-0.5352,9.7266,0.999512,-0.026123,0.017273,0.005127
2026-04-22 14:36:32,-0.3047,-0.4219,9.7656,0.999512,-0.026123,0.017273,0.005127
2026-04-22 14:36:32,-0.2695,-0.4219,9.7266,0.999512,-0.026123,0.017273,0.005127
2026-04-22 14:36:32,-0.3047,-0.4961,9.7266,0.999512,-0.026123,0.017273,0.005127
2026-04-22 14:36:32,-0.4219,-0.5352,9.7266,0.999512,-0.026123,0.017273,0.005127
2026-04-22 14:36:32,-0.4219,-0.5742,9.6484,0.999512,-0.026123,0.017273,0.005127
2026-04-22 14:36:33,-0.3047,-0.4609,9.7266,0.999512,-0.026123,0.017334,0.005188
2026-04-22 14:36:33,-0.3828,-0.4961,9.7305,0.999512,-0.026123,0.017334,0.005188
2026-04-22 14:36:33,-0.4219,-0.5352,9.7266,0.999512,-0.026123,0.017273,0.005188
2026-04-22 14:36:33,-0.3047,-0.4961,9.7695,0.999512,-0.026123,0.017273,0.005188
2026-04-22 14:36:33,-0.3047,-0.5352,9.6875,0.999512,-0.026123,0.017273,0.005188
2026-04-22 14:36:33,-0.2305,-0.4961,9.8086,0.999512,-0.026123,0.017273,0.005188
2026-04-22 14:36:33,-0.2305,-0.5352,9.7695,0.999512,-0.026123,0.017273,0.005127
2026-04-22 14:36:33,-0.4961,-0.5352,9.7305,0.999512,-0.026123,0.017273,0.005127
2026-04-22 14:36:33,-0.3828,-0.4961,9.8047,0.999512,-0.026123,0.017273,0.005127
2026-04-22 14:36:33,-0.3047,-0.4609,9.7695,0.999512,-0.026123,0.017273,0.005127
2026-04-22 14:36:33,-0.3047,-0.4609,9.7266,0.999512,-0.026123,0.017334,0.005188
2026-04-22 14:36:33,-0.3828,-0.4219,9.6875,0.999512,-0.026123,0.017334,0.005188
2026-04-22 14:36:33,-0.4219,-0.4961,9.7266,0.999512,-0.026123,0.017334,0.005188
2026-04-22 14:36:33,-0.3438,-0.4961,9.7305,0.999512,-0.026123,0.017334,0.005188
2026-04-22 14:36:33,-0.3438,-0.4961,9.7305,0.999512,-0.026123,0.017334,0.005188
2026-04-22 14:36:33,-0.3828,-0.5742,9.6875,0.999512,-0.026123,0.017334,0.005188
2026-04-22 14:36:33,-0.3438,-0.5352,9.6484,0.999512,-0.026123,0.017334,0.005188
2026-04-22 14:36:33,-0.3047,-0.5352,9.6875,0.999512,-0.026123,0.017334,0.005188
2026-04-22 14:36:33,-0.3828,-0.4961,9.6914,0.999512,-0.026123,0.017334,0.005188
2026-04-22 14:36:33,-0.3828,-0.5352,9.7305,0.999512,-0.026123,0.017334,0.005188
2026-04-22 14:36:33,-0.3828,-0.5352,9.6484,0.999512,-0.026123,0.017334,0.005188
2026-04-22 14:36:33,-0.3047,-0.4609,9.6875,0.999512,-0.026123,0.017334,0.005188
2026-04-22 14:36:33,-0.3438,-0.4961,9.6914,0.999512,-0.026123,0.017334,0.005188
2026-04-22 14:36:33,-0.3828,-0.5742,9.6875,0.999512,-0.026123,0.017334,0.005188
2026-04-22 14:36:33,-0.3047,-0.4961,9.6875,0.999512,-0.026123,0.017334,0.005188
2026-04-22 14:36:33,-0.2695,-0.4219,9.7695,0.999512,-0.026123,0.017334,0.005188
2026-04-22 14:36:33,-0.3047,-0.4961,9.7695,0.999512,-0.026123,0.017334,0.005188
2026-04-22 14:36:33,-0.3438,-0.4961,9.7305,0.999512,-0.026123,0.017334,0.005188
2026-04-22 14:36:33,-0.3438,-0.4961,9.8047,0.999512,-0.026123,0.017334,0.005188
2026-04-22 14:36:33,-0.3438,-0.4609,9.7656,0.999512,-0.026062,0.017334,0.005188
2026-04-22 14:36:33,-0.3438,-0.4961,9.6914,0.999512,-0.026062,0.017334,0.005188
2026-04-22 14:36:33,-0.3438,-0.5352,9.7305,0.999512,-0.026062,0.017334,0.005188
2026-04-22 14:36:33,-0.4219,-0.4961,9.7695,0.999512,-0.026062,0.017334,0.005188
2026-04-22 14:36:33,-0.0781,-0.0781,10.2656,0.999512,-0.026062,0.017334,0.005188
2026-04-22 14:36:33,-0.4219,-0.6523,9.3828,0.999512,-0.026062,0.017334,0.005188
2026-04-22 14:36:33,-0.1914,-0.4961,10.0000,0.999512,-0.026062,0.017334,0.005127
2026-04-22 14:36:33,-0.2305,-0.4609,9.7695,0.999512,-0.026062,0.017578,0.005066
2026-04-22 14:36:33,-0.5352,-0.5742,9.7695,0.999512,-0.026123,0.017700,0.005127
2026-04-22 14:36:33,-0.4609,-0.4961,9.8477,0.999512,-0.026123,0.017639,0.005127
2026-04-22 14:36:33,-0.4609,-0.4961,9.6914,0.999512,-0.026062,0.017517,0.005066
2026-04-22 14:36:33,-0.3438,-0.4609,9.7656,0.999512,-0.025696,0.016846,0.005127
2026-04-22 14:36:34,-0.3828,-0.4609,9.7305,0.999512,-0.025635,0.016785,0.005188
2026-04-22 14:36:34,-0.3047,-0.4609,9.6875,0.999512,-0.025696,0.016663,0.005249
2026-04-22 14:36:34,-0.3438,-0.5352,9.7305,0.999512,-0.025635,0.016602,0.005249
2026-04-22 14:36:34,-0.3438,-0.5352,9.6914,0.999512,-0.025574,0.016541,0.005310
2026-04-22 14:36:34,-0.3438,-0.5352,9.6914,0.999512,-0.025574,0.016541,0.005310
2026-04-22 14:36:34,-0.3438,-0.5352,9.7305,0.999512,-0.025513,0.016418,0.005310
2026-04-22 14:36:34,-0.3047,-0.4609,9.8086,0.999512,-0.025513,0.016418,0.005310
2026-04-22 14:36:34,-0.3047,-0.4219,9.7305,0.999512,-0.025452,0.016357,0.005249
2026-04-22 14:36:34,-0.3828,-0.5352,9.7305,0.999512,-0.025513,0.016296,0.005249
2026-04-22 14:36:34,-0.3438,-0.5352,9.7305,0.999512,-0.025818,0.016357,0.005371
2026-04-22 14:36:34,-0.3438,-0.4961,9.7305,0.999512,-0.025818,0.016357,0.005432
2026-04-22 14:36:34,-0.3438,-0.4961,9.6914,0.999512,-0.025757,0.016357,0.005493
2026-04-22 14:36:34,-0.3047,-0.4961,9.6875,0.999512,-0.025757,0.016357,0.005432
2026-04-22 14:36:34,-0.2695,-0.4219,9.7266,0.999512,-0.025818,0.016418,0.005371
2026-04-22 14:36:34,-0.3828,-0.5742,9.6875,0.999512,-0.025818,0.016418,0.005371
2026-04-22 14:36:34,-0.3438,-0.4961,9.7305,0.999512,-0.025757,0.016418,0.005432
2026-04-22 14:36:34,-0.3438,-0.4961,9.7305,0.999512,-0.025757,0.016418,0.005432
2026-04-22 14:36:34,-0.2305,-0.4219,9.7656,0.999512,-0.025757,0.016418,0.005432
2026-04-22 14:36:34,-0.3438,-0.4961,9.7305,0.999512,-0.025818,0.016418,0.005432
2026-04-22 14:36:34,-0.3047,-0.4961,9.7695,0.999512,-0.025635,0.016174,0.005737
2026-04-22 14:36:34,-0.3828,-0.4961,9.8047,0.999512,-0.025757,0.016235,0.005737
2026-04-22 14:36:34,-0.3438,-0.4609,9.6914,0.999512,-0.025757,0.016235,0.005737
2026-04-22 14:36:34,-0.3047,-0.4961,9.7266,0.999512,-0.025696,0.016174,0.005798
2026-04-22 14:36:34,-0.3047,-0.5352,9.7266,0.999512,-0.025696,0.016174,0.005798
2026-04-22 14:36:34,-0.3047,-0.5742,9.6484,0.999512,-0.025635,0.016174,0.005737
2026-04-22 14:36:34,-0.3438,-0.4961,9.7305,0.999512,-0.025635,0.016235,0.005737
2026-04-22 14:36:34,-0.3828,-0.5742,9.7266,0.999512,-0.025574,0.016296,0.005737
2026-04-22 14:36:34,-0.3438,-0.4961,9.7305,0.999512,-0.025635,0.016357,0.005737
2026-04-22 14:36:34,-0.3047,-0.4961,9.7695,0.999512,-0.025635,0.016357,0.005737
2026-04-22 14:36:34,-0.3828,-0.4961,9.6484,0.999512,-0.025635,0.016174,0.006042
2026-04-22 14:36:34,-0.3438,-0.5352,9.6914,0.999512,-0.025635,0.015991,0.006226
2026-04-22 14:36:34,-0.3047,-0.4609,9.6875,0.999512,-0.025513,0.015930,0.006226
2026-04-22 14:36:34,-0.2305,-0.4219,9.7305,0.999512,-0.025513,0.015930,0.006226
2026-04-22 14:36:34,-0.3047,-0.4609,9.6875,0.999512,-0.025513,0.015930,0.006226
2026-04-22 14:36:34,-0.3438,-0.5352,9.7305,0.999512,-0.025574,0.016052,0.006226
2026-04-22 14:36:34,-0.3828,-0.5352,9.6914,0.999512,-0.025635,0.016052,0.006287
2026-04-22 14:36:34,-0.3828,-0.4961,9.6914,0.999512,-0.025635,0.016052,0.006348
2026-04-22 14:36:34,-0.3438,-0.4609,9.7656,0.999512,-0.025635,0.015991,0.006348
2026-04-22 14:36:34,-0.2695,-0.4609,9.6914,0.999512,-0.025635,0.016052,0.006287
2026-04-22 14:36:35,-0.4219,-0.5742,9.6914,0.999512,-0.025574,0.016296,0.006165
2026-04-22 14:36:35,-0.3047,-0.4961,9.7266,0.999512,-0.025085,0.015991,0.006348
2026-04-22 14:36:35,-0.2305,-0.4609,9.7266,0.999512,-0.025085,0.015991,0.006348
2026-04-22 14:36:35,-0.3438,-0.4961,9.6484,0.999512,-0.025146,0.015991,0.006348
2026-04-22 14:36:35,-0.4219,-0.5352,9.6523,0.999512,-0.025146,0.015991,0.006409
2026-04-22 14:36:35,-0.3438,-0.5352,9.7305,0.999512,-0.025146,0.015930,0.006409
2026-04-22 14:36:35,-0.2695,-0.4609,9.7305,0.999512,-0.025146,0.015930,0.006409
2026-04-22 14:36:35,-0.2695,-0.4219,9.7266,0.999512,-0.025208,0.015991,0.006470
2026-04-22 14:36:35,-0.3828,-0.4961,9.6914,0.999512,-0.025330,0.015991,0.006592
2026-04-22 14:36:35,-0.2305,-0.4609,9.7266,0.999512,-0.025330,0.015991,0.006592
2026-04-22 14:36:35,-0.2305,-0.4961,9.6875,0.999512,-0.025757,0.016235,0.006531
2026-04-22 14:36:35,-0.2305,-0.3828,9.8086,0.999512,-0.025818,0.016235,0.006592
2026-04-22 14:36:35,-0.3047,-0.5352,9.6875,0.999512,-0.025879,0.016235,0.006531
2026-04-22 14:36:35,-0.3828,-0.5742,9.6523,0.999512,-0.025879,0.016235,0.006531
2026-04-22 14:36:35,-0.3047,-0.4961,9.7266,0.999512,-0.025879,0.016235,0.006531
2026-04-22 14:36:35,-0.3438,-0.4961,9.7305,0.999512,-0.025879,0.016235,0.006531
2026-04-22 14:36:35,-0.3047,-0.4609,9.7266,0.999512,-0.025940,0.016235,0.006531
2026-04-22 14:36:35,-0.3438,-0.4961,9.6484,0.999512,-0.025940,0.016235,0.006531
2026-04-22 14:36:35,-0.3047,-0.4961,9.6875,0.999512,-0.025940,0.016296,0.006531
2026-04-22 14:36:35,-0.2695,-0.4219,9.7695,0.999512,-0.025940,0.016296,0.006531
2026-04-22 14:36:35,-0.3047,-0.4961,9.7266,0.999512,-0.026001,0.016296,0.006531
2026-04-22 14:36:35,-0.3828,-0.5742,9.6875,0.999512,-0.026001,0.016357,0.006531
2026-04-22 14:36:35,-0.2695,-0.4961,9.6914,0.999512,-0.026001,0.016357,0.006531
2026-04-22 14:36:35,-0.3047,-0.5352,9.7266,0.999512,-0.026001,0.016357,0.006531
2026-04-22 14:36:35,-0.3438,-0.5352,9.6914,0.999512,-0.026062,0.016357,0.006531
2026-04-22 14:36:35,-0.3438,-0.4961,9.7305,0.999512,-0.026062,0.016357,0.006531
2026-04-22 14:36:35,-0.3828,-0.5352,9.7656,0.999512,-0.026062,0.016357,0.006531
2026-04-22 14:36:35,-0.3828,-0.5742,9.6875,0.999512,-0.026062,0.016418,0.006531
2026-04-22 14:36:35,-0.3438,-0.5742,9.7266,0.999512,-0.026062,0.016418,0.006531
2026-04-22 14:36:35,-0.3438,-0.5352,9.6914,0.999512,-0.026062,0.016418,0.006531
2026-04-22 14:36:35,-0.3828,-0.5352,9.7305,0.999512,-0.026123,0.016418,0.006531
2026-04-22 14:36:35,-0.3047,-0.4609,9.7266,0.999512,-0.026184,0.016479,0.006531
2026-04-22 14:36:35,-0.2695,-0.4961,9.7656,0.999512,-0.026184,0.016479,0.006531
2026-04-22 14:36:35,-0.3438,-0.5352,9.6914,0.999512,-0.026184,0.016479,0.006531
2026-04-22 14:36:35,-0.3828,-0.4961,9.6914,0.999512,-0.026184,0.016479,0.006531
2026-04-22 14:36:36,-0.3438,-0.5352,9.7305,0.999512,-0.026245,0.016479,0.006531
2026-04-22 14:36:36,-0.3047,-0.4961,9.6875,0.999512,-0.026245,0.016479,0.006531
2026-04-22 14:36:36,-0.2695,-0.4609,9.7656,0.999512,-0.026245,0.016479,0.006531
2026-04-22 14:36:36,-0.3828,-0.5742,9.6875,0.999512,-0.026245,0.016479,0.006531
2026-04-22 14:36:36,-0.3047,-0.5352,9.7266,0.999512,-0.026306,0.016541,0.006531
2026-04-22 14:36:36,-0.3828,-0.4961,9.7305,0.999512,-0.026367,0.016541,0.006531
2026-04-22 14:36:36,-0.3438,-0.4609,9.7305,0.999512,-0.026367,0.016541,0.006531
2026-04-22 14:36:36,-0.3047,-0.4609,9.7266,0.999512,-0.026428,0.016602,0.006531
2026-04-22 14:36:36,-0.3438,-0.5352,9.6914,0.999512,-0.026428,0.016602,0.006531
2026-04-22 14:36:36,-0.3047,-0.5742,9.6914,0.999512,-0.026428,0.016602,0.006531
2026-04-22 14:36:36,-0.3438,-0.5742,9.7266,0.999512,-0.026428,0.016602,0.006531
2026-04-22 14:36:36,-0.3828,-0.5352,9.6914,0.999512,-0.026428,0.016602,0.006531
2026-04-22 14:36:36,-0.3828,-0.4961,9.6484,0.999512,-0.026428,0.016602,0.006531
2026-04-22 14:36:36,-0.2695,-0.4609,9.7656,0.999512,-0.026489,0.016602,0.006531
2026-04-22 14:36:36,-0.4219,-0.6133,9.6875,0.999512,-0.026489,0.016602,0.006531
2026-04-22 14:36:36,-0.3438,-0.5742,9.7266,0.999512,-0.026550,0.016663,0.006531
2026-04-22 14:36:36,-0.4219,-0.4961,9.7695,0.999512,-0.026550,0.016663,0.006531
2026-04-22 14:36:36,-0.4219,-0.5352,9.6523,0.999512,-0.026550,0.016663,0.006531
2026-04-22 14:36:36,-0.2695,-0.4961,9.7656,0.999512,-0.026550,0.016663,0.006531
2026-04-22 14:36:36,-0.3438,-0.5742,9.6523,0.999512,-0.026611,0.016663,0.006531
2026-04-22 14:36:36,-0.2305,-0.4961,9.6875,0.999512,-0.026611,0.016663,0.006531
2026-04-22 14:36:36,-0.2305,-0.5352,9.7266,0.999512,-0.026611,0.016663,0.006531
2026-04-22 14:36:36,-0.3828,-0.5742,9.7266,0.999512,-0.026611,0.016663,0.006531
2026-04-22 14:36:36,-0.3828,-0.5352,9.6484,0.999512,-0.026611,0.016663,0.006531
2026-04-22 14:36:36,-0.3047,-0.4961,9.7695,0.999512,-0.026611,0.016663,0.006531
2026-04-22 14:36:36,-0.2695,-0.4609,9.7305,0.999512,-0.026733,0.016663,0.006531
2026-04-22 14:36:36,-0.3438,-0.5352,9.7305,0.999512,-0.026733,0.016663,0.006531
2026-04-22 14:36:36,-0.3438,-0.4961,9.7305,0.999512,-0.026733,0.016724,0.006531
2026-04-22 14:36:36,-0.2305,-0.4961,9.7266,0.999512,-0.026672,0.016663,0.006531
2026-04-22 14:36:36,-0.3047,-0.5352,9.6875,0.999512,-0.026733,0.016663,0.006531
2026-04-22 14:36:36,-0.3438,-0.5352,9.7305,0.999451,-0.026794,0.016724,0.006531
2026-04-22 14:36:36,-0.3828,-0.5742,9.6875,0.999451,-0.026794,0.016724,0.006531
2026-04-22 14:36:36,-0.3438,-0.4961,9.7305,0.999451,-0.026733,0.016785,0.006653
2026-04-22 14:36:36,-0.3438,-0.4961,9.6484,0.999451,-0.026794,0.016846,0.006653
2026-04-22 14:36:36,-0.3047,-0.5352,9.7266,0.999451,-0.026855,0.016907,0.006775
2026-04-22 14:36:36,-0.0781,0.0000,10.1914,0.999451,-0.027222,0.016418,0.007202
2026-04-22 14:36:36,-0.2695,-0.5352,10.0039,0.999451,-0.027344,0.016296,0.007324
2026-04-22 14:36:36,-0.1523,-0.3828,9.7656,0.999451,-0.027283,0.016235,0.007324
2026-04-22 14:36:36,-0.1523,-0.4219,9.8086,0.999451,-0.027283,0.016296,0.007324
2026-04-22 14:36:36,-0.4219,-0.5742,9.6484,0.999451,-0.027283,0.016296,0.007324
2026-04-22 14:36:36,-0.2695,-0.4961,9.7656,0.999451,-0.027283,0.016296,0.007324
2026-04-22 14:36:36,-0.4609,-0.6133,9.6484,0.999451,-0.027283,0.016296,0.007324
2026-04-22 14:36:37,-0.2305,-0.4609,9.7266,0.999451,-0.027283,0.016296,0.007324
2026-04-22 14:36:37,-0.3438,-0.5352,9.7305,0.999451,-0.027222,0.016113,0.007385
2026-04-22 14:36:37,-0.3438,-0.5352,9.6914,0.999451,-0.027283,0.016113,0.007446
2026-04-22 14:36:37,-0.3047,-0.4961,9.6875,0.999451,-0.027222,0.015869,0.007507
2026-04-22 14:36:37,-0.3438,-0.5742,9.6875,0.999451,-0.027222,0.015930,0.007507
2026-04-22 14:36:37,-0.3438,-0.4961,9.6484,0.999451,-0.027222,0.015930,0.007568
2026-04-22 14:36:37,-0.3047,-0.4961,9.8086,0.999451,-0.027222,0.015930,0.007568
2026-04-22 14:36:37,-0.3047,-0.4961,9.7266,0.999451,-0.027283,0.015991,0.007568
2026-04-22 14:36:37,-0.3828,-0.5742,9.6875,0.999451,-0.027283,0.016052,0.007568
2026-04-22 14:36:37,-0.3828,-0.5742,9.6875,0.999451,-0.027222,0.015991,0.007568
2026-04-22 14:36:37,-0.3047,-0.5742,9.7305,0.999451,-0.027222,0.015991,0.007568
2026-04-22 14:36:37,-0.3828,-0.4961,9.7305,0.999451,-0.027100,0.015930,0.007507
2026-04-22 14:36:37,-0.2695,-0.4609,9.7656,0.999451,-0.027100,0.015869,0.007568
2026-04-22 14:36:37,-0.3828,-0.5742,9.6875,0.999451,-0.027161,0.015747,0.007629
2026-04-22 14:36:37,-0.3047,-0.4961,9.8086,0.999451,-0.027161,0.015808,0.007629
2026-04-22 14:36:37,-0.3438,-0.5352,9.6914,0.999451,-0.027161,0.015747,0.007629
2026-04-22 14:36:37,-0.3047,-0.4961,9.7695,0.999451,-0.027161,0.015747,0.007690
2026-04-22 14:36:37,-0.2695,-0.5352,9.6914,0.999451,-0.027161,0.015747,0.007690
2026-04-22 14:36:37,-0.2695,-0.4961,9.6914,0.999451,-0.027222,0.015747,0.007690
2026-04-22 14:36:37,-0.3047,-0.4961,9.6875,0.999451,-0.027405,0.015808,0.007690
2026-04-22 14:36:37,-0.3438,-0.5742,9.8438,0.999451,-0.027588,0.015991,0.007751
2026-04-22 14:36:37,-0.3438,-0.5352,9.6484,0.999451,-0.027710,0.016052,0.007813
2026-04-22 14:36:37,-0.3828,-0.6133,9.7656,0.999451,-0.027710,0.016052,0.007813
2026-04-22 14:36:37,-0.3438,-0.5352,9.8047,0.999451,-0.027527,0.016052,0.007935
2026-04-22 14:36:37,-0.3438,-0.5352,9.6914,0.999451,-0.027527,0.015991,0.007935
2026-04-22 14:36:37,-0.3047,-0.5352,9.6875,0.999451,-0.027466,0.015930,0.007935
2026-04-22 14:36:37,-0.2695,-0.5352,9.7305,0.999451,-0.027527,0.015930,0.007935
2026-04-22 14:36:37,-0.2695,-0.5352,9.6914,0.999451,-0.027527,0.015930,0.007935
2026-04-22 14:36:37,-0.3438,-0.6133,9.7305,0.999451,-0.027527,0.016052,0.007935
2026-04-22 14:36:37,-0.3047,-0.4961,9.7266,0.999451,-0.027527,0.016113,0.007935
2026-04-22 14:36:37,-0.3438,-0.5352,9.6914,0.999451,-0.027527,0.016113,0.007935
2026-04-22 14:36:37,-0.3828,-0.5352,9.7656,0.999451,-0.027527,0.016052,0.007935
2026-04-22 14:36:37,-0.2695,-0.4609,9.7305,0.999451,-0.027588,0.016052,0.007874
2026-04-22 14:36:37,-0.3047,-0.4961,9.6875,0.999451,-0.027344,0.015869,0.007751
2026-04-22 14:36:37,-0.3438,-0.5352,9.8047,0.999451,-0.027405,0.015808,0.007751
2026-04-22 14:36:37,-0.2305,-0.4961,9.6133,0.999451,-0.027405,0.015808,0.007813
2026-04-22 14:36:37,-0.2695,-0.4961,9.7305,0.999451,-0.027466,0.015869,0.007874
2026-04-22 14:36:37,-0.3438,-0.5742,9.6875,0.999451,-0.027466,0.015869,0.007874
2026-04-22 14:36:37,-0.3438,-0.5352,9.6914,0.999451,-0.027527,0.015991,0.007813
2026-04-22 14:36:37,-0.3438,-0.4961,9.7656,0.999451,-0.027527,0.015991,0.007813
2026-04-22 14:36:37,-0.3047,-0.5352,9.6875,0.999451,-0.027405,0.015869,0.007874
2026-04-22 14:36:37,-0.2695,-0.4961,9.7656,0.999451,-0.027344,0.015808,0.007874
2026-04-22 14:36:37,-0.3438,-0.5742,9.7266,0.999451,-0.027283,0.015808,0.007874
2026-04-22 14:36:38,-0.4609,-0.6133,9.6914,0.999451,-0.027100,0.015747,0.007813
2026-04-22 14:36:38,-0.3438,-0.5352,9.7305,0.999451,-0.027100,0.015686,0.007751
2026-04-22 14:36:38,-0.2305,-0.4609,9.7695,0.999451,-0.027161,0.015625,0.007690
2026-04-22 14:36:38,-0.3047,-0.5352,9.7266,0.999451,-0.027161,0.015625,0.007690
2026-04-22 14:36:38,-0.3438,-0.5352,9.7305,0.999451,-0.027222,0.015686,0.007629
2026-04-22 14:36:38,-0.3047,-0.4961,9.7695,0.999451,-0.027222,0.015686,0.007690
2026-04-22 14:36:38,-0.3828,-0.5742,9.6133,0.999451,-0.027283,0.015625,0.007690
2026-04-22 14:36:38,-0.3047,-0.5352,9.6133,0.999451,-0.027283,0.015625,0.007629
2026-04-22 14:36:38,-0.3047,-0.5352,9.7266,0.999451,-0.027283,0.015625,0.007629
2026-04-22 14:36:38,-0.3047,-0.5742,9.6484,0.999451,-0.027283,0.015686,0.007629
2026-04-22 14:36:38,-0.4609,-0.6133,9.6484,0.999451,-0.027344,0.016052,0.007324
2026-04-22 14:36:38,-0.3047,-0.5352,9.7695,0.999451,-0.027344,0.016052,0.007324
2026-04-22 14:36:38,-0.1523,-0.4219,9.6523,0.999451,-0.027283,0.015991,0.007324
2026-04-22 14:36:38,-0.1914,-0.5352,9.7266,0.999451,-0.027405,0.016113,0.007263
2026-04-22 14:36:38,-0.3828,-0.6133,9.7305,0.999451,-0.027527,0.016296,0.007263
2026-04-22 14:36:38,-0.3828,-0.5352,9.6484,0.999451,-0.027527,0.016357,0.007202
2026-04-22 14:36:38,-0.3828,-0.4961,9.7656,0.999451,-0.027466,0.016418,0.007141
2026-04-22 14:36:38,-0.3828,-0.4961,9.7656,0.999451,-0.027466,0.016418,0.007141
2026-04-22 14:36:38,-0.3047,-0.4609,9.6875,0.999451,-0.027405,0.016418,0.007141
2026-04-22 14:36:38,-0.3438,-0.5742,9.6875,0.999451,-0.027527,0.016479,0.007141
2026-04-22 14:36:38,-0.3438,-0.5742,9.7266,0.999451,-0.027710,0.016541,0.007263
2026-04-22 14:36:38,-0.3047,-0.4961,9.7266,0.999451,-0.027710,0.016541,0.007324
2026-04-22 14:36:38,-0.3828,-0.5742,9.6875,0.999451,-0.027710,0.016541,0.007385
2026-04-22 14:36:38,-0.3438,-0.5742,9.6523,0.999451,-0.027710,0.016541,0.007385
2026-04-22 14:36:38,-0.3047,-0.5352,9.7266,0.999451,-0.027710,0.016541,0.007385
2026-04-22 14:36:38,-0.3438,-0.5742,9.7266,0.999451,-0.027649,0.016479,0.007385
2026-04-22 14:36:38,-0.3438,-0.5352,9.6094,0.999451,-0.027649,0.016541,0.007324
2026-04-22 14:36:38,-0.3047,-0.5352,9.7266,0.999451,-0.027771,0.016602,0.007324
2026-04-22 14:36:38,-0.3438,-0.4961,9.7656,0.999451,-0.027832,0.016663,0.007324
2026-04-22 14:36:38,-0.4219,-0.5742,9.6914,0.999451,-0.027832,0.016663,0.007324
2026-04-22 14:36:38,-0.3047,-0.4961,9.7266,0.999451,-0.027832,0.016479,0.007507
2026-04-22 14:36:38,-0.3438,-0.5742,9.7266,0.999451,-0.027893,0.016418,0.007507
2026-04-22 14:36:38,-0.2695,-0.5352,9.7305,0.999451,-0.027893,0.016418,0.007507
2026-04-22 14:36:38,-0.3047,-0.5742,9.6914,0.999451,-0.028015,0.016479,0.007568
2026-04-22 14:36:38,-0.3828,-0.5742,9.7266,0.999451,-0.028015,0.016479,0.007568
2026-04-22 14:36:38,-0.3828,-0.5742,9.7695,0.999451,-0.027954,0.016418,0.007507
2026-04-22 14:36:38,-0.2695,-0.4961,9.7305,0.999451,-0.027893,0.016357,0.007507
2026-04-22 14:36:38,-0.3047,-0.5352,9.7266,0.999451,-0.027893,0.016296,0.007568
2026-04-22 14:36:38,-0.3438,-0.5352,9.8047,0.999451,-0.027893,0.016296,0.007568
2026-04-22 14:36:38,-0.3047,-0.5352,9.6875,0.999451,-0.027954,0.016357,0.007568
2026-04-22 14:36:39,-0.3438,-0.4961,9.7305,0.999451,-0.028015,0.016785,0.007568
2026-04-22 14:36:39,-0.3828,-0.6523,9.7305,0.999451,-0.028076,0.016785,0.007568
2026-04-22 14:36:39,-0.3438,-0.6523,9.6094,0.999451,-0.028198,0.016785,0.007629
2026-04-22 14:36:39,-0.2695,-0.6133,9.6484,0.999451,-0.028259,0.016846,0.007629
2026-04-22 14:36:39,-0.3828,-0.6133,9.7305,0.999451,-0.028198,0.016846,0.007568
2026-04-22 14:36:39,-0.3828,-0.4961,9.7305,0.999451,-0.028137,0.016846,0.007507
2026-04-22 14:36:39,-0.3828,-0.4961,9.7656,0.999451,-0.028076,0.016846,0.007507
2026-04-22 14:36:39,-0.2695,-0.4961,9.7305,0.999451,-0.028137,0.016846,0.007446
2026-04-22 14:36:39,-0.3438,-0.5742,9.6875,0.999451,-0.028198,0.016907,0.007507
2026-04-22 14:36:39,-0.3828,-0.5742,9.7266,0.999451,-0.028259,0.016907,0.007568
2026-04-22 14:36:39,-0.3047,-0.5742,9.7305,0.999390,-0.028625,0.017029,0.007568
2026-04-22 14:36:39,-0.3047,-0.4961,9.6875,0.999390,-0.028625,0.017090,0.007629
2026-04-22 14:36:39,-0.4219,-0.5742,9.8047,0.999390,-0.028748,0.017212,0.007751
2026-04-22 14:36:39,-0.3438,-0.4961,9.7656,0.999390,-0.028809,0.017273,0.007751
2026-04-22 14:36:39,-0.3047,-0.5742,9.6914,0.999390,-0.028870,0.017395,0.007751
2026-04-22 14:36:39,-0.4219,-0.6523,9.7266,0.999390,-0.028992,0.017517,0.007690
2026-04-22 14:36:39,-0.2695,-0.4961,9.7656,0.999390,-0.028992,0.017578,0.007629
2026-04-22 14:36:39,-0.3047,-0.5352,9.7266,0.999390,-0.028992,0.017578,0.007629
2026-04-22 14:36:39,-0.3438,-0.5742,9.6523,0.999390,-0.029114,0.017700,0.007629
2026-04-22 14:36:39,-0.3438,-0.5742,9.7695,0.999390,-0.029236,0.017883,0.007629
2026-04-22 14:36:39,-0.3438,-0.6523,9.7656,0.999390,-0.029114,0.019043,0.007141
2026-04-22 14:36:39,-0.2695,-0.7266,9.5039,0.999329,-0.028931,0.019897,0.007324
2026-04-22 14:36:39,-0.1914,-0.5742,10.0742,0.999329,-0.028870,0.020264,0.007385
2026-04-22 14:36:39,-0.4609,-0.4609,9.2305,0.999329,-0.028076,0.023315,0.008301
2026-04-22 14:36:39,-0.8438,-1.1094,9.1563,0.999268,-0.026733,0.026123,0.009033
2026-04-22 14:36:39,-0.1914,0.0000,9.8828,0.999207,-0.026001,0.028625,0.009644
2026-04-22 14:36:39,-0.4961,-0.4609,9.8477,0.999146,-0.025574,0.030884,0.010254
2026-04-22 14:36:39,-0.6523,-0.4609,9.7305,0.999023,-0.024414,0.035522,0.011414
2026-04-22 14:36:39,-0.5352,-0.1523,9.8477,0.998901,-0.024109,0.037781,0.011780
2026-04-22 14:36:39,-0.7656,-0.5742,9.9648,0.998901,-0.024048,0.038574,0.011902
2026-04-22 14:36:39,-0.9961,-0.6133,9.8477,0.997314,-0.033447,0.063660,0.011902
2026-04-22 14:36:39,-0.9180,-0.6523,9.7656,0.997192,-0.034546,0.065369,0.011597
2026-04-22 14:36:39,-1.0352,-0.6914,9.6523,0.996948,-0.036621,0.068298,0.011230
2026-04-22 14:36:39,-1.1875,-0.8438,9.5039,0.996094,-0.042419,0.076843,0.010498
2026-04-22 14:36:39,-1.5703,-0.9961,9.3867,0.995483,-0.045959,0.082336,0.010132
2026-04-22 14:36:39,-1.6836,-1.2656,9.3477,0.994934,-0.048828,0.087341,0.009705
2026-04-22 14:36:39,-2.2617,-1.3398,9.1602,0.994385,-0.051208,0.091980,0.009155
2026-04-22 14:36:39,-2.2969,-1.3789,9.1211,0.993896,-0.053406,0.096375,0.008789
2026-04-22 14:36:39,-1.7617,-1.1875,9.6484,0.993347,-0.055359,0.100647,0.008728
2026-04-22 14:36:39,-2.3750,-1.1484,8.8867,0.992859,-0.056885,0.104553,0.008789
2026-04-22 14:36:40,-2.7188,-1.4180,8.8828,0.989502,-0.066711,0.127686,0.010010
2026-04-22 14:36:40,-2.2227,-1.0742,9.3438,0.988892,-0.067993,0.132019,0.010010
2026-04-22 14:36:40,-2.5664,-1.4922,9.1563,0.988464,-0.068604,0.134460,0.010193
2026-04-22 14:36:40,-2.7188,-1.5313,9.0430,0.988098,-0.069092,0.136902,0.010437
2026-04-22 14:36:40,-2.9102,-1.5703,9.3438,0.987915,-0.069092,0.138306,0.010376
2026-04-22 14:36:40,-3.1016,-1.5313,9.2656,0.987854,-0.068604,0.139099,0.010254
2026-04-22 14:36:40,-2.7578,-1.2656,9.2305,0.987854,-0.067932,0.139526,0.010071
2026-04-22 14:36:40,-2.9102,-1.4570,9.2695,0.987854,-0.067200,0.139648,0.009949
2026-04-22 14:36:40,-2.6797,-1.2266,9.2305,0.987915,-0.066284,0.139648,0.009766
2026-04-22 14:36:40,-2.5664,-1.1875,9.2656,0.987976,-0.065491,0.139648,0.009644
2026-04-22 14:36:40,-2.9492,-1.3398,9.2656,0.987732,-0.063904,0.142395,0.008911
2026-04-22 14:36:40,-2.7188,-1.1875,9.3828,0.987732,-0.063110,0.142456,0.008423
2026-04-22 14:36:40,-2.6445,-1.1875,9.3086,0.987732,-0.062622,0.142639,0.007935
2026-04-22 14:36:40,-2.5273,-1.1875,9.2266,0.987732,-0.062622,0.142761,0.007874
2026-04-22 14:36:40,-2.7578,-1.2656,9.2656,0.987671,-0.062622,0.143066,0.007751
2026-04-22 14:36:40,-2.8359,-1.3398,9.2695,0.987549,-0.062988,0.144165,0.007629
2026-04-22 14:36:40,-2.9492,-1.3789,9.2656,0.987427,-0.063049,0.144592,0.007629
2026-04-22 14:36:40,-2.7969,-1.3008,9.2266,0.987427,-0.062927,0.144958,0.007568
2026-04-22 14:36:40,-2.8359,-1.3008,9.1211,0.987427,-0.062866,0.145020,0.007568
2026-04-22 14:36:40,-2.7969,-1.3008,9.3086,0.987366,-0.062561,0.145447,0.007446
2026-04-22 14:36:40,-2.9102,-1.3008,9.1211,0.987061,-0.061768,0.147644,0.007080
2026-04-22 14:36:40,-2.9883,-1.3789,9.0391,0.987122,-0.060913,0.147583,0.006958
2026-04-22 14:36:40,-2.7578,-1.0742,9.4648,0.987122,-0.060547,0.147705,0.006714
2026-04-22 14:36:40,-2.5273,-0.9180,9.5781,0.987061,-0.060547,0.148254,0.006531
2026-04-22 14:36:40,-2.6445,-1.0352,9.3828,0.986877,-0.061096,0.149170,0.006409
2026-04-22 14:36:40,-3.0664,-1.4180,9.0430,0.986877,-0.061218,0.149414,0.006409
2026-04-22 14:36:40,-3.2188,-1.4922,9.0820,0.986694,-0.061707,0.150146,0.006348
2026-04-22 14:36:40,-3.1016,-1.3789,9.0391,0.986511,-0.062012,0.151367,0.006104
2026-04-22 14:36:40,-2.8359,-1.0352,9.4258,0.986511,-0.061646,0.151611,0.005859
2026-04-22 14:36:40,-2.7188,-1.1484,9.3047,0.986450,-0.061279,0.151917,0.005615
2026-04-22 14:36:40,-3.3320,-1.5313,9.3477,0.986206,-0.058350,0.154968,0.004822
2026-04-22 14:36:40,-2.7188,-0.8828,9.2695,0.986389,-0.056519,0.154358,0.004578
2026-04-22 14:36:40,-2.8711,-1.0742,9.1211,0.986511,-0.055237,0.153992,0.004272
2026-04-22 14:36:40,-2.8711,-0.9961,9.3086,0.986572,-0.054810,0.153870,0.004211
2026-04-22 14:36:40,-2.7188,-0.9180,9.3086,0.986633,-0.053650,0.153809,0.003845
2026-04-22 14:36:40,-2.8359,-1.0352,9.2266,0.986633,-0.053223,0.154053,0.003662
2026-04-22 14:36:40,-2.9883,-1.1094,9.1953,0.986572,-0.053162,0.154236,0.003601
2026-04-22 14:36:40,-3.0273,-1.0742,9.2656,0.986511,-0.052917,0.154846,0.003540
2026-04-22 14:36:40,-3.1406,-1.1875,9.2305,0.986511,-0.052673,0.155029,0.003418
2026-04-22 14:36:40,-3.1797,-1.1094,9.1992,0.986511,-0.052307,0.155090,0.003296
2026-04-22 14:36:40,-2.9883,-1.0742,9.2305,0.986755,-0.050659,0.154053,0.002625
2026-04-22 14:36:40,-3.1406,-1.1875,9.1211,0.986755,-0.050720,0.154114,0.002563
2026-04-22 14:36:40,-3.1406,-1.1875,9.1953,0.986755,-0.050720,0.154114,0.002441
2026-04-22 14:36:41,-3.0273,-1.0352,9.3438,0.986816,-0.050476,0.153931,0.002319
2026-04-22 14:36:41,-2.7578,-0.8438,9.2266,0.986816,-0.050476,0.153870,0.002319
2026-04-22 14:36:41,-2.6445,-0.8047,9.3867,0.986816,-0.050354,0.153748,0.002136
2026-04-22 14:36:41,-2.9102,-0.9180,9.3438,0.986755,-0.050659,0.154175,0.002075
2026-04-22 14:36:41,-2.8711,-0.8828,9.4258,0.986633,-0.051270,0.154663,0.002258
2026-04-22 14:36:41,-3.1406,-1.1875,9.1953,0.986389,-0.052368,0.155823,0.002563
2026-04-22 14:36:41,-2.8711,-0.9570,9.3086,0.986389,-0.052490,0.156006,0.002441
2026-04-22 14:36:41,-3.2930,-1.2656,9.2305,0.985596,-0.055176,0.159851,0.001160
2026-04-22 14:36:41,-3.0664,-1.0352,9.1602,0.985596,-0.054993,0.159851,0.000854
2026-04-22 14:36:41,-3.0664,-1.0352,9.5820,0.985596,-0.054932,0.159851,0.000549
2026-04-22 14:36:41,-3.1797,-1.1484,9.2266,0.985596,-0.055054,0.159973,0.000244
2026-04-22 14:36:41,-2.9492,-1.0352,9.0430,0.985535,-0.055359,0.160278,-0.000183
2026-04-22 14:36:41,-2.9102,-1.1094,9.1602,0.985413,-0.055786,0.160645,-0.000305
2026-04-22 14:36:41,-3.2188,-1.3008,9.1211,0.985352,-0.056091,0.160950,-0.000427
2026-04-22 14:36:41,-3.1797,-1.2656,9.0000,0.985352,-0.056091,0.160950,-0.000427
2026-04-22 14:36:41,-3.2578,-1.3008,9.1953,0.985413,-0.055725,0.160828,-0.000610
2026-04-22 14:36:41,-3.2930,-1.2266,9.1992,0.985474,-0.055481,0.160645,-0.000671
2026-04-22 14:36:41,-2.9883,-1.0742,9.1953,0.986267,-0.052734,0.156433,0.000000
2026-04-22 14:36:41,-2.7578,-0.8828,9.2266,0.986328,-0.052734,0.155945,0.000061
2026-04-22 14:36:41,-2.9883,-0.9961,9.3828,0.986267,-0.053162,0.156250,0.000122
2026-04-22 14:36:41,-3.1406,-1.2266,8.9219,0.986206,-0.053650,0.156555,0.000305
2026-04-22 14:36:41,-3.1016,-1.2266,9.0391,0.986206,-0.053772,0.156616,0.000305
2026-04-22 14:36:41,-3.2930,-1.3789,8.8828,0.986206,-0.054016,0.156677,0.000427
2026-04-22 14:36:41,-3.0664,-1.1484,9.2266,0.986267,-0.053772,0.156189,0.000488
2026-04-22 14:36:41,-2.9883,-1.0742,9.3477,0.986389,-0.053284,0.155640,0.000549
2026-04-22 14:36:41,-2.7578,-0.9180,9.3086,0.986450,-0.052856,0.155151,0.000549
2026-04-22 14:36:41,-2.8359,-0.9180,9.2695,0.986511,-0.052856,0.155029,0.000549
2026-04-22 14:36:41,-2.6445,-0.8438,9.3086,0.986816,-0.052612,0.153198,0.000305
2026-04-22 14:36:41,-2.8711,-1.0742,9.1602,0.986755,-0.052917,0.153442,0.000305
2026-04-22 14:36:41,-3.1016,-1.1875,9.1992,0.986633,-0.053406,0.154114,0.000366
2026-04-22 14:36:41,-3.1016,-1.1875,9.1563,0.986572,-0.053528,0.154358,0.000305
2026-04-22 14:36:41,-3.1406,-1.2656,9.0781,0.986572,-0.053345,0.154358,0.000244
2026-04-22 14:36:41,-2.8711,-0.9961,9.4258,0.986572,-0.053101,0.154419,0.000061
2026-04-22 14:36:41,-3.0664,-1.2266,9.3047,0.986572,-0.053040,0.154480,0.000000
2026-04-22 14:36:41,-2.7578,-0.9180,9.3828,0.986511,-0.053040,0.154724,-0.000122
2026-04-22 14:36:41,-2.7188,-0.8047,9.2305,0.986267,-0.053894,0.156250,-0.000122
2026-04-22 14:36:41,-2.9492,-0.9180,9.1211,0.986023,-0.054749,0.157471,-0.000122
2026-04-22 14:36:41,-3.1797,-1.2656,9.0391,0.985229,-0.057678,0.161255,-0.000916
2026-04-22 14:36:42,-3.1797,-1.2266,9.1953,0.985168,-0.057800,0.161438,-0.000854
2026-04-22 14:36:42,-3.1406,-1.1875,9.1953,0.985168,-0.057983,0.161621,-0.000854
2026-04-22 14:36:42,-3.0273,-1.1094,9.2305,0.985046,-0.058228,0.162048,-0.000854
2026-04-22 14:36:42,-3.1797,-1.1875,9.1953,0.984985,-0.058411,0.162354,-0.000854
2026-04-22 14:36:42,-3.2188,-1.1875,9.1992,0.984985,-0.058533,0.162537,-0.000793
2026-04-22 14:36:42,-3.1406,-1.1875,9.1211,0.984924,-0.058716,0.162781,-0.000793
2026-04-22 14:36:42,-3.1797,-1.2266,9.1211,0.984863,-0.058838,0.163025,-0.000793
2026-04-22 14:36:42,-3.2188,-1.2266,9.1172,0.984863,-0.058899,0.163147,-0.000793
2026-04-22 14:36:42,-3.2188,-1.1875,9.1172,0.984802,-0.058960,0.163208,-0.000793
2026-04-22 14:36:42,-3.1016,-1.1484,9.2305,0.984741,-0.059814,0.163330,-0.000793
2026-04-22 14:36:42,-3.1016,-1.1484,9.2305,0.984802,-0.059753,0.163025,-0.000854
2026-04-22 14:36:42,-3.0664,-1.1484,9.2266,0.984863,-0.059631,0.162598,-0.000977
2026-04-22 14:36:42,-3.0664,-1.1484,9.1563,0.984924,-0.059692,0.162354,-0.000977
2026-04-22 14:36:42,-3.1016,-1.2266,9.1172,0.984924,-0.059814,0.162354,-0.000977
2026-04-22 14:36:42,-3.1406,-1.2656,9.1563,0.984924,-0.059814,0.162292,-0.000916
2026-04-22 14:36:42,-3.1797,-1.2656,9.1172,0.984924,-0.059814,0.162170,-0.000916
2026-04-22 14:36:42,-3.1406,-1.2656,9.0781,0.984985,-0.059692,0.161987,-0.000854
2026-04-22 14:36:42,-3.0664,-1.0742,9.2695,0.985046,-0.059509,0.161743,-0.000854
2026-04-22 14:36:42,-3.0273,-1.0742,9.2656,0.985046,-0.059509,0.161560,-0.000793
2026-04-22 14:36:42,-3.0273,-1.2656,9.1211,0.985107,-0.060181,0.161072,-0.000366
2026-04-22 14:36:42,-2.9883,-1.2266,9.1992,0.985107,-0.060181,0.161194,-0.000183
2026-04-22 14:36:42,-3.1016,-1.3008,9.0820,0.985046,-0.060120,0.161316,0.000061
2026-04-22 14:36:42,-3.0273,-1.1875,9.0000,0.985046,-0.060059,0.161377,0.000244
2026-04-22 14:36:42,-3.1797,-1.2266,9.3477,0.985046,-0.059937,0.161499,0.000427
2026-04-22 14:36:42,-3.1406,-1.2656,9.1563,0.985046,-0.059692,0.161560,0.000916
2026-04-22 14:36:42,-3.1797,-1.0352,9.1602,0.985046,-0.059631,0.161621,0.001099
2026-04-22 14:36:42,-3.2930,-1.1484,9.1211,0.985046,-0.059631,0.161682,0.001465
2026-04-22 14:36:42,-3.1797,-1.1484,9.1563,0.985046,-0.059631,0.161743,0.001526
2026-04-22 14:36:42,-3.1406,-1.1875,9.1602,0.985046,-0.059631,0.161804,0.001587
2026-04-22 14:36:42,-3.1406,-1.2656,9.1172,0.984985,-0.060486,0.161621,0.001343
2026-04-22 14:36:42,-3.1406,-1.1875,9.1602,0.984985,-0.060425,0.161560,0.001465
2026-04-22 14:36:42,-3.1016,-1.1484,9.1602,0.984985,-0.060364,0.161560,0.001465
2026-04-22 14:36:42,-3.1406,-1.1484,9.2266,0.985046,-0.060303,0.161560,0.001526
2026-04-22 14:36:42,-3.0273,-1.1875,9.1172,0.985046,-0.060120,0.161377,0.001587
2026-04-22 14:36:42,-3.0664,-1.1875,9.1211,0.985046,-0.060120,0.161377,0.001587
2026-04-22 14:36:42,-2.9883,-1.1484,9.1602,0.985046,-0.060181,0.161438,0.001648
2026-04-22 14:36:42,-2.9883,-1.1875,9.0391,0.984985,-0.060181,0.161682,0.001770
2026-04-22 14:36:42,-3.1797,-1.2656,9.1172,0.984985,-0.060181,0.161865,0.001892
2026-04-22 14:36:42,-3.2188,-1.2656,9.1953,0.984985,-0.060120,0.161926,0.001953
2026-04-22 14:36:42,-3.1406,-1.1875,9.1602,0.984985,-0.060181,0.161865,0.001953
2026-04-22 14:36:42,-3.1016,-1.0742,9.2656,0.984985,-0.060181,0.161682,0.001953
2026-04-22 14:36:42,-3.0273,-1.0742,9.2656,0.985046,-0.060181,0.161560,0.001953
2026-04-22 14:36:42,-3.1406,-1.1484,9.1172,0.985046,-0.060242,0.161560,0.001892
2026-04-22 14:36:42,-3.1016,-1.1875,9.1172,0.985046,-0.060364,0.161560,0.001953
2026-04-22 14:36:43,-3.1406,-1.2266,9.1602,0.984985,-0.060486,0.161499,0.001953
2026-04-22 14:36:43,-3.1797,-1.1875,9.1211,0.985046,-0.060547,0.161438,0.001953
2026-04-22 14:36:43,-3.0664,-1.1875,9.1211,0.985046,-0.060547,0.161377,0.001892
2026-04-22 14:36:43,-3.1016,-1.2266,9.1563,0.985046,-0.060547,0.161316,0.001892
2026-04-22 14:36:43,-3.1406,-1.2266,9.1602,0.985046,-0.060486,0.161255,0.001892
2026-04-22 14:36:43,-3.0273,-1.1094,9.1602,0.985168,-0.059937,0.160645,0.002014
2026-04-22 14:36:43,-3.1016,-1.1484,9.1953,0.985168,-0.059937,0.160706,0.002014
2026-04-22 14:36:43,-3.1016,-1.1484,9.1602,0.985168,-0.059998,0.160828,0.002136
2026-04-22 14:36:43,-3.1016,-1.2266,9.0391,0.985107,-0.060181,0.160889,0.002197
2026-04-22 14:36:43,-3.1797,-1.2656,9.1172,0.985107,-0.060181,0.160889,0.002258
2026-04-22 14:36:43,-3.2188,-1.2266,9.2266,0.985168,-0.059998,0.160767,0.002319
2026-04-22 14:36:43,-3.1406,-1.1484,9.2266,0.985168,-0.059875,0.160583,0.002258
2026-04-22 14:36:43,-3.0273,-1.0742,9.2305,0.985229,-0.059875,0.160522,0.002258
2026-04-22 14:36:43,-3.0273,-1.1094,9.2305,0.985168,-0.059998,0.160583,0.002258
2026-04-22 14:36:43,-3.0664,-1.1484,9.1563,0.985168,-0.060242,0.160706,0.002258
2026-04-22 14:36:43,-3.1016,-1.2656,9.1211,0.985168,-0.060486,0.160645,0.002319
2026-04-22 14:36:43,-3.0273,-1.1094,9.3047,0.985107,-0.060669,0.160706,0.002380
2026-04-22 14:36:43,-3.1406,-1.1484,8.9609,0.985107,-0.060852,0.160767,0.002441
2026-04-22 14:36:43,-3.0273,-1.1094,9.1602,0.985107,-0.061035,0.160828,0.002441
2026-04-22 14:36:43,-3.0664,-1.1484,9.1992,0.985046,-0.061279,0.160889,0.002441
2026-04-22 14:36:43,-3.1797,-1.2656,9.1563,0.985046,-0.061584,0.161072,0.002502
2026-04-22 14:36:43,-3.1406,-1.2266,9.1602,0.984985,-0.061768,0.161133,0.002563
2026-04-22 14:36:43,-3.1016,-1.2266,9.1563,0.984985,-0.061829,0.161072,0.002563
2026-04-22 14:36:43,-3.0664,-1.1875,9.2305,0.984985,-0.061829,0.161011,0.002563
2026-04-22 14:36:43,-3.0664,-1.1875,9.1953,0.984985,-0.061890,0.161011,0.002502
2026-04-22 14:36:43,-3.1016,-1.1875,9.1992,0.984985,-0.061646,0.161377,0.002258
2026-04-22 14:36:43,-3.1016,-1.1875,9.1563,0.984924,-0.061707,0.161438,0.002197
2026-04-22 14:36:43,-3.1797,-1.2266,9.1602,0.984924,-0.061768,0.161560,0.002136
2026-04-22 14:36:43,-3.1797,-1.2266,9.1953,0.984924,-0.061768,0.161560,0.002014
2026-04-22 14:36:43,-3.1016,-1.1875,9.1563,0.984924,-0.061707,0.161499,0.001831
2026-04-22 14:36:43,-2.9883,-1.1094,9.1602,0.984924,-0.061707,0.161560,0.001770
2026-04-22 14:36:43,-3.0273,-1.1484,9.1953,0.984924,-0.061707,0.161621,0.001770
2026-04-22 14:36:43,-3.1016,-1.2266,9.1992,0.984863,-0.061890,0.161926,0.001709
2026-04-22 14:36:43,-3.1797,-1.2656,9.1563,0.984863,-0.061951,0.161987,0.001709
2026-04-22 14:36:43,-3.1797,-1.2266,9.0820,0.984802,-0.062012,0.162048,0.001648
2026-04-22 14:36:43,-3.1406,-1.1875,9.1211,0.984985,-0.061096,0.161499,0.000916
2026-04-22 14:36:43,-3.0664,-1.1875,9.1953,0.984985,-0.060974,0.161377,0.000854
2026-04-22 14:36:43,-3.1016,-1.1875,9.1992,0.984985,-0.060974,0.161377,0.000916
2026-04-22 14:36:43,-3.0273,-1.1094,9.1602,0.984985,-0.060974,0.161377,0.000916
2026-04-22 14:36:43,-3.1406,-1.1875,9.1953,0.984985,-0.061096,0.161499,0.000977
2026-04-22 14:36:43,-3.1406,-1.2266,9.0820,0.984924,-0.061218,0.161621,0.001038
2026-04-22 14:36:43,-3.0664,-1.1875,9.1602,0.984924,-0.061340,0.161621,0.001099
2026-04-22 14:36:44,-3.2188,-1.2266,9.1563,0.984924,-0.061340,0.161682,0.001099
2026-04-22 14:36:44,-3.1016,-1.1875,9.1563,0.984924,-0.061340,0.161621,0.001099
2026-04-22 14:36:44,-3.0664,-1.1875,9.1602,0.984985,-0.061279,0.161560,0.001099
2026-04-22 14:36:44,-3.1797,-1.2266,9.1211,0.984985,-0.061096,0.161499,0.000977
2026-04-22 14:36:44,-3.2930,-1.3008,8.9648,0.985107,-0.060669,0.160828,0.000977
2026-04-22 14:36:44,-3.1797,-1.2266,9.0820,0.985229,-0.060181,0.160217,0.000854
2026-04-22 14:36:44,-3.0664,-1.1484,9.2695,0.985352,-0.059692,0.159607,0.000732
2026-04-22 14:36:44,-2.7969,-0.9180,9.3047,0.985474,-0.059509,0.159241,0.000610
2026-04-22 14:36:44,-2.9102,-1.0352,9.2266,0.985474,-0.059509,0.159241,0.000610
2026-04-22 14:36:44,-3.0664,-1.1875,9.1211,0.985352,-0.060059,0.159607,0.000732
2026-04-22 14:36:44,-3.1016,-1.2266,9.0781,0.985291,-0.060425,0.159912,0.000854
2026-04-22 14:36:44,-3.2930,-1.3398,9.0781,0.985229,-0.060486,0.160034,0.000916
2026-04-22 14:36:44,-3.1406,-1.2266,8.9219,0.985229,-0.060425,0.160034,0.000916
2026-04-22 14:36:44,-3.0273,-1.1094,9.1602,0.985107,-0.060852,0.160828,0.001160
2026-04-22 14:36:44,-3.0273,-1.1875,9.1992,0.985107,-0.060852,0.160828,0.001160
2026-04-22 14:36:44,-3.1016,-1.1875,9.1563,0.985107,-0.060852,0.160828,0.001160
2026-04-22 14:36:44,-3.1016,-1.1875,9.1563,0.985107,-0.060913,0.160889,0.001099
2026-04-22 14:36:44,-3.0664,-1.1484,9.1563,0.985107,-0.060913,0.160889,0.001038
2026-04-22 14:36:44,-3.0664,-1.1094,9.1563,0.985107,-0.060852,0.160950,0.001038
2026-04-22 14:36:44,-3.1406,-1.1484,9.1563,0.985046,-0.060913,0.161011,0.001038
2026-04-22 14:36:44,-3.0664,-1.1484,9.1992,0.985046,-0.060974,0.161011,0.001038
2026-04-22 14:36:44,-3.1406,-1.2266,9.1602,0.985046,-0.061035,0.161072,0.001099
2026-04-22 14:36:44,-3.1406,-1.1875,9.1602,0.985046,-0.061218,0.161072,0.001160
2026-04-22 14:36:44,-3.1016,-1.1875,9.1992,0.984924,-0.061646,0.161682,0.001343
2026-04-22 14:36:44,-3.1406,-1.2266,9.0820,0.984924,-0.061646,0.161743,0.001404
2026-04-22 14:36:44,-3.1797,-1.2266,9.1211,0.984924,-0.061646,0.161804,0.001465
2026-04-22 14:36:44,-3.1406,-1.1484,9.1172,0.984924,-0.061584,0.161804,0.001465
2026-04-22 14:36:44,-3.1406,-1.1875,9.1602,0.984924,-0.061584,0.161743,0.001526
2026-04-22 14:36:44,-3.1406,-1.1484,9.1992,0.984924,-0.061584,0.161743,0.001465
2026-04-22 14:36:44,-3.0664,-1.1484,9.1563,0.984863,-0.061646,0.161804,0.001465
2026-04-22 14:36:44,-3.0664,-1.1484,9.1563,0.984863,-0.061646,0.161865,0.001465
2026-04-22 14:36:44,-3.1016,-1.1875,9.1172,0.984863,-0.061646,0.161987,0.001404
2026-04-22 14:36:44,-3.1797,-1.2266,9.1602,0.984863,-0.061646,0.161987,0.001404
2026-04-22 14:36:44,-3.1016,-1.1875,9.2266,0.984863,-0.061523,0.162048,0.001221
2026-04-22 14:36:44,-3.1406,-1.1484,9.1992,0.984863,-0.061462,0.162170,0.001221
2026-04-22 14:36:44,-3.1406,-1.1875,9.1953,0.984863,-0.061462,0.162231,0.001221
2026-04-22 14:36:44,-3.2188,-1.2266,9.1563,0.984863,-0.061462,0.162170,0.001160
2026-04-22 14:36:44,-3.1406,-1.1875,9.0820,0.984863,-0.061401,0.162109,0.001160
2026-04-22 14:36:44,-3.0664,-1.1875,9.1602,0.984863,-0.061401,0.162048,0.001099
2026-04-22 14:36:44,-3.0273,-1.1875,9.1992,0.984863,-0.061401,0.162048,0.001099
2026-04-22 14:36:44,-3.0664,-1.1484,9.2266,0.984863,-0.061462,0.162109,0.001099
2026-04-22 14:36:44,-3.1797,-1.2266,9.1602,0.984863,-0.061523,0.162109,0.001099
2026-04-22 14:36:44,-3.1016,-1.1875,9.1172,0.984863,-0.061462,0.162109,0.001038
2026-04-22 14:36:45,-3.1406,-1.1484,9.1992,0.984863,-0.061462,0.162170,0.000977
2026-04-22 14:36:45,-3.1016,-1.1875,9.1563,0.984802,-0.061584,0.162231,0.001038
2026-04-22 14:36:45,-3.1016,-1.2266,9.1563,0.984863,-0.061584,0.162170,0.001038
2026-04-22 14:36:45,-3.0664,-1.1484,9.1563,0.984863,-0.061584,0.162109,0.001099
2026-04-22 14:36:45,-3.1016,-1.1875,9.1563,0.984863,-0.061584,0.162109,0.001099
2026-04-22 14:36:45,-3.1406,-1.1875,9.1602,0.984863,-0.061646,0.162109,0.001221
2026-04-22 14:36:45,-3.1406,-1.1875,9.1953,0.984863,-0.061646,0.162109,0.001221
2026-04-22 14:36:45,-3.0273,-1.1875,9.1563,0.984863,-0.061707,0.162109,0.001160
2026-04-22 14:36:45,-3.0273,-1.1875,9.1992,0.984863,-0.061768,0.162109,0.001160
2026-04-22 14:36:45,-3.1016,-1.2266,9.1172,0.984802,-0.061829,0.162170,0.001221
2026-04-22 14:36:45,-3.0664,-1.1875,9.0820,0.984802,-0.062134,0.162292,0.001343
2026-04-22 14:36:45,-3.1406,-1.1875,9.1602,0.984741,-0.062195,0.162476,0.001465
2026-04-22 14:36:45,-3.2188,-1.2266,9.1992,0.984741,-0.062195,0.162476,0.001526
2026-04-22 14:36:45,-3.1406,-1.2266,9.1211,0.984741,-0.062195,0.162415,0.001526
2026-04-22 14:36:45,-3.1016,-1.1875,9.1992,0.984741,-0.062256,0.162354,0.001526
2026-04-22 14:36:45,-3.1797,-1.2266,9.1602,0.984741,-0.062256,0.162354,0.001587
2026-04-22 14:36:45,-3.1797,-1.2656,9.1172,0.984741,-0.062256,0.162354,0.001587
2026-04-22 14:36:45,-3.1406,-1.1875,9.1211,0.984802,-0.062012,0.162109,0.001709
2026-04-22 14:36:45,-3.1016,-1.2266,9.1563,0.984863,-0.061829,0.161987,0.001770
2026-04-22 14:36:45,-3.1406,-1.2266,9.1602,0.984863,-0.061707,0.161865,0.001831
2026-04-22 14:36:45,-3.1406,-1.2266,9.1953,0.985046,-0.061890,0.160828,0.001770
2026-04-22 14:36:45,-3.0664,-1.1094,9.2266,0.985046,-0.061829,0.160828,0.001770
2026-04-22 14:36:45,-3.0664,-1.1484,9.1992,0.985046,-0.061890,0.160767,0.001831
2026-04-22 14:36:45,-3.0664,-1.2266,9.1602,0.985046,-0.062012,0.160828,0.001770
2026-04-22 14:36:45,-3.1016,-1.2266,9.1992,0.985046,-0.062073,0.160889,0.001770
2026-04-22 14:36:45,-3.0664,-1.1875,9.1953,0.984985,-0.062134,0.160950,0.001770
2026-04-22 14:36:45,-3.1016,-1.2266,9.0781,0.984985,-0.062134,0.160950,0.001770
2026-04-22 14:36:45,-3.2188,-1.2266,9.2266,0.984985,-0.062195,0.161072,0.001892
2026-04-22 14:36:45,-3.1406,-1.2266,9.1602,0.984985,-0.062256,0.161133,0.001953
2026-04-22 14:36:45,-3.0273,-1.1094,9.1602,0.984985,-0.062256,0.161133,0.001953
2026-04-22 14:36:45,-3.0664,-1.1875,9.1953,0.984863,-0.062500,0.161682,0.001953
2026-04-22 14:36:45,-3.1016,-1.1875,9.1563,0.984863,-0.062500,0.161682,0.001953
2026-04-22 14:36:45,-3.1797,-1.2266,9.1953,0.984863,-0.062622,0.161804,0.002075
2026-04-22 14:36:45,-3.1406,-1.1484,9.1563,0.984802,-0.062683,0.161804,0.002075
2026-04-22 14:36:45,-3.1016,-1.1484,9.0820,0.984802,-0.062744,0.161865,0.002014
2026-04-22 14:36:45,-3.1406,-1.2266,9.2305,0.984802,-0.062988,0.161865,0.001953
2026-04-22 14:36:45,-3.1016,-1.2266,9.1992,0.984802,-0.063049,0.161865,0.002014
2026-04-22 14:36:45,-3.1406,-1.2266,9.1953,0.984802,-0.063110,0.161865,0.001953
2026-04-22 14:36:45,-3.1016,-1.1875,9.1992,0.984802,-0.063110,0.161865,0.001953
2026-04-22 14:36:45,-3.0664,-1.1875,9.1953,0.984802,-0.063171,0.161865,0.002014
2026-04-22 14:36:46,-3.1016,-1.2266,9.1172,0.984802,-0.063660,0.161621,0.002441
2026-04-22 14:36:46,-3.1016,-1.2266,9.1992,0.984802,-0.063721,0.161560,0.002441
2026-04-22 14:36:46,-3.1406,-1.2266,9.1953,0.984802,-0.063721,0.161499,0.002625
2026-04-22 14:36:46,-3.0664,-1.2266,9.1602,0.984802,-0.063721,0.161438,0.002686
2026-04-22 14:36:46,-3.1797,-1.2656,9.1563,0.984863,-0.063660,0.161377,0.002747
2026-04-22 14:36:46,-3.1797,-1.2266,9.1602,0.984863,-0.063538,0.161255,0.002808
2026-04-22 14:36:46,-3.1016,-1.1875,9.1172,0.984863,-0.063477,0.161133,0.002747
2026-04-22 14:36:46,-3.0664,-1.1875,9.1953,0.984924,-0.063416,0.161011,0.002808
2026-04-22 14:36:46,-3.1406,-1.2266,9.1602,0.984924,-0.063416,0.161011,0.002808
2026-04-22 14:36:46,-3.1016,-1.2656,9.0820,0.984863,-0.063538,0.161072,0.002869
2026-04-22 14:36:46,-3.0664,-1.1875,9.1602,0.984924,-0.063354,0.160767,0.002991
2026-04-22 14:36:46,-3.0664,-1.1875,9.1953,0.984924,-0.063538,0.160889,0.002991
2026-04-22 14:36:46,-3.0664,-1.1875,9.1211,0.984924,-0.063660,0.160950,0.003052
2026-04-22 14:36:46,-3.1406,-1.3008,9.1172,0.984924,-0.063721,0.160950,0.003113
2026-04-22 14:36:46,-3.1016,-1.1875,9.1992,0.984863,-0.063782,0.161072,0.003235
2026-04-22 14:36:46,-3.0664,-1.1875,9.1953,0.984863,-0.063782,0.161072,0.003235
2026-04-22 14:36:46,-3.1016,-1.1875,9.1992,0.984863,-0.063782,0.161072,0.003296
2026-04-22 14:36:46,-3.1016,-1.2266,9.1992,0.984863,-0.063904,0.161255,0.003296
2026-04-22 14:36:46,-3.1406,-1.2266,9.1602,0.984802,-0.064026,0.161316,0.003357
2026-04-22 14:36:46,-3.1016,-1.2266,9.1992,0.984802,-0.063965,0.161255,0.003357
2026-04-22 14:36:46,-3.2188,-1.2656,9.1211,0.984802,-0.063965,0.161316,0.003479
2026-04-22 14:36:46,-3.0273,-1.1484,9.1953,0.984863,-0.063843,0.161194,0.003418
2026-04-22 14:36:46,-3.1406,-1.1875,9.1602,0.984863,-0.063782,0.161133,0.003418
2026-04-22 14:36:46,-3.1406,-1.2266,9.1602,0.984863,-0.063843,0.161133,0.003418
2026-04-22 14:36:46,-3.1406,-1.2266,9.0820,0.984863,-0.063843,0.161133,0.003418
2026-04-22 14:36:46,-3.0664,-1.2656,9.1563,0.984863,-0.063843,0.161133,0.003418
2026-04-22 14:36:46,-3.0664,-1.1875,9.1602,0.984863,-0.063843,0.161133,0.003479
2026-04-22 14:36:46,-3.1016,-1.2656,9.1602,0.984863,-0.063843,0.161133,0.003479
2026-04-22 14:36:46,-3.1016,-1.1875,9.1992,0.984863,-0.063782,0.161072,0.003540
2026-04-22 14:36:46,-3.0664,-1.1484,9.1563,0.984863,-0.063843,0.161072,0.003540
2026-04-22 14:36:46,-3.1406,-1.2266,9.1602,0.984802,-0.063965,0.161316,0.003662
2026-04-22 14:36:46,-3.1406,-1.2656,9.1992,0.984802,-0.064026,0.161377,0.003662
2026-04-22 14:36:46,-3.0664,-1.1875,9.1211,0.984802,-0.064026,0.161499,0.003662
2026-04-22 14:36:46,-3.2578,-1.2656,9.1953,0.984802,-0.064026,0.161560,0.003662
2026-04-22 14:36:46,-3.1406,-1.1875,9.1211,0.984802,-0.063904,0.161621,0.003784
2026-04-22 14:36:46,-3.0664,-1.1875,9.0820,0.984802,-0.063904,0.161560,0.003723
2026-04-22 14:36:46,-3.0664,-1.1875,9.1602,0.984802,-0.063904,0.161560,0.003723
2026-04-22 14:36:46,-3.1016,-1.2266,9.1992,0.984802,-0.063965,0.161560,0.003723
2026-04-22 14:36:46,-3.1406,-1.2656,9.1992,0.984741,-0.064026,0.161621,0.003662
2026-04-22 14:36:46,-3.1406,-1.2656,9.1172,0.984741,-0.064026,0.161621,0.003723
2026-04-22 14:36:47,-3.1797,-1.2656,9.1172,0.984802,-0.063354,0.161682,0.003662
2026-04-22 14:36:47,-3.1016,-1.1875,9.1992,0.984802,-0.063354,0.161621,0.003662
2026-04-22 14:36:47,-3.0273,-1.1484,9.1602,0.984802,-0.063354,0.161621,0.003662
2026-04-22 14:36:47,-3.1016,-1.2266,9.1992,0.984802,-0.063354,0.161621,0.003662
2026-04-22 14:36:47,-3.1016,-1.2266,9.1563,0.984802,-0.063477,0.161621,0.003662
2026-04-22 14:36:47,-3.2578,-1.2656,9.2305,0.984802,-0.063477,0.161621,0.003662
2026-04-22 14:36:47,-2.9883,-1.1094,9.1211,0.984802,-0.063416,0.161560,0.003601
2026-04-22 14:36:47,-2.9883,-1.1875,9.0781,0.984802,-0.063477,0.161560,0.003662
2026-04-22 14:36:47,-3.0664,-1.1484,9.2266,0.984802,-0.063538,0.161621,0.003662
2026-04-22 14:36:47,-3.2188,-1.2656,9.1953,0.984802,-0.063599,0.161621,0.003662
2026-04-22 14:36:47,-3.1797,-1.1875,9.2656,0.984802,-0.063782,0.161560,0.003723
2026-04-22 14:36:47,-3.0664,-1.1484,9.1172,0.984802,-0.063721,0.161560,0.003784
2026-04-22 14:36:47,-3.1797,-1.2656,9.1172,0.984802,-0.063843,0.161560,0.003845
2026-04-22 14:36:47,-3.1406,-1.2656,9.0781,0.984802,-0.063904,0.161560,0.003906
2026-04-22 14:36:47,-3.1016,-1.2656,9.1953,0.984802,-0.063904,0.161499,0.003906
2026-04-22 14:36:47,-3.1406,-1.2266,9.2305,0.984802,-0.063843,0.161438,0.003845
2026-04-22 14:36:47,-3.1016,-1.1875,9.1992,0.984802,-0.063843,0.161438,0.003845
2026-04-22 14:36:47,-3.0664,-1.1484,9.1992,0.984802,-0.063904,0.161438,0.003845
2026-04-22 14:36:47,-3.1406,-1.2656,9.0781,0.984802,-0.063904,0.161438,0.003845
2026-04-22 14:36:47,-3.0664,-1.2266,9.1602,0.984802,-0.063904,0.161316,0.003906
2026-04-22 14:36:47,-3.0664,-1.1094,9.1992,0.984863,-0.063599,0.161072,0.003967
2026-04-22 14:36:47,-3.0273,-1.1094,9.3047,0.984863,-0.063599,0.161072,0.004028
2026-04-22 14:36:47,-3.1797,-1.1875,8.9648,0.984863,-0.063843,0.161133,0.004089
2026-04-22 14:36:47,-3.2188,-1.1875,9.1172,0.984863,-0.063904,0.161194,0.004089
2026-04-22 14:36:47,-3.1797,-1.2656,9.1563,0.984802,-0.064087,0.161255,0.004028
2026-04-22 14:36:47,-3.1016,-1.2266,9.0391,0.984802,-0.064209,0.161316,0.004028
2026-04-22 14:36:47,-3.1016,-1.2266,9.1172,0.984802,-0.064331,0.161377,0.004028
2026-04-22 14:36:47,-3.0664,-1.1875,9.0820,0.984802,-0.064331,0.161377,0.004028
2026-04-22 14:36:47,-3.1016,-1.2656,9.0430,0.984802,-0.064331,0.161377,0.003967
2026-04-22 14:36:47,-3.1406,-1.2656,9.1563,0.984802,-0.064331,0.161377,0.003906
2026-04-22 14:36:47,-3.1016,-1.2266,9.2266,0.984680,-0.064270,0.162048,0.003052
2026-04-22 14:36:47,-3.1016,-1.1875,9.1563,0.984619,-0.064331,0.162231,0.002991
2026-04-22 14:36:47,-3.1406,-1.2656,9.1992,0.984619,-0.064331,0.162354,0.002991
2026-04-22 14:36:47,-3.1797,-1.2656,9.1992,0.984619,-0.064270,0.162354,0.003052
2026-04-22 14:36:47,-3.1406,-1.2266,9.1602,0.984619,-0.064209,0.162415,0.003052
2026-04-22 14:36:47,-3.0664,-1.1875,9.0820,0.984619,-0.064087,0.162476,0.003052
2026-04-22 14:36:47,-3.1797,-1.2266,9.1953,0.984619,-0.064026,0.162476,0.003052
2026-04-22 14:36:47,-3.1797,-1.2266,9.2305,0.984619,-0.064026,0.162537,0.003052
2026-04-22 14:36:47,-3.1016,-1.2266,9.1563,0.984619,-0.064087,0.162598,0.003052
2026-04-22 14:36:47,-3.2578,-1.2656,9.1602,0.984558,-0.064148,0.162720,0.003113
2026-04-22 14:36:48,-3.1406,-1.2266,9.1953,0.984680,-0.063843,0.162292,0.003113
2026-04-22 14:36:48,-3.0664,-1.1484,9.1563,0.984680,-0.063782,0.162231,0.003113
2026-04-22 14:36:48,-3.1406,-1.2266,9.2305,0.984680,-0.063782,0.162109,0.003113
2026-04-22 14:36:48,-3.1406,-1.2656,9.1563,0.984680,-0.063782,0.162109,0.003113
2026-04-22 14:36:48,-3.1406,-1.2266,9.1602,0.984680,-0.063782,0.162109,0.003174
2026-04-22 14:36:48,-3.1406,-1.2266,9.1602,0.984680,-0.063782,0.162170,0.003235
2026-04-22 14:36:48,-3.1016,-1.1875,9.1563,0.984680,-0.063782,0.162170,0.003235
2026-04-22 14:36:48,-3.2188,-1.2266,9.1563,0.984680,-0.063782,0.162170,0.003296
2026-04-22 14:36:48,-3.1406,-1.1875,9.1211,0.984680,-0.063721,0.162109,0.003357
2026-04-22 14:36:48,-3.0664,-1.1875,9.1211,0.984680,-0.063721,0.162109,0.003357
2026-04-22 14:36:48,-3.0664,-1.1875,9.1602,0.984680,-0.063660,0.162170,0.003662
2026-04-22 14:36:48,-3.0664,-1.1484,9.1992,0.984680,-0.063660,0.162170,0.003662
2026-04-22 14:36:48,-3.1406,-1.2266,9.1953,0.984680,-0.063660,0.162170,0.003723
2026-04-22 14:36:48,-3.1797,-1.2266,9.0820,0.984680,-0.063660,0.162170,0.003784
2026-04-22 14:36:48,-3.1016,-1.2266,9.1172,0.984680,-0.063599,0.162170,0.003845
2026-04-22 14:36:48,-3.1016,-1.2266,9.1172,0.984680,-0.063660,0.162170,0.003906
2026-04-22 14:36:48,-3.1406,-1.2266,9.1602,0.984680,-0.063721,0.162231,0.003906
2026-04-22 14:36:48,-3.1406,-1.2266,9.0820,0.984680,-0.063721,0.162231,0.003967
2026-04-22 14:36:48,-3.1797,-1.2266,9.1602,0.984680,-0.063782,0.162231,0.003967
2026-04-22 14:36:48,-3.1016,-1.1875,9.1563,0.984680,-0.063721,0.162170,0.003967
2026-04-22 14:36:48,-3.1797,-1.2266,9.1602,0.984741,-0.063354,0.161987,0.003845
2026-04-22 14:36:48,-2.9883,-1.1484,9.1953,0.984741,-0.063354,0.161926,0.003784
2026-04-22 14:36:48,-3.0664,-1.1875,9.1211,0.984741,-0.063416,0.161926,0.003784
2026-04-22 14:36:48,-3.1016,-1.2266,9.1563,0.984741,-0.063477,0.161987,0.003784
2026-04-22 14:36:48,-3.1406,-1.2266,9.0820,0.984741,-0.063416,0.162048,0.003845
2026-04-22 14:36:48,-3.1016,-1.1875,9.1992,0.984741,-0.063416,0.161987,0.003845
2026-04-22 14:36:48,-3.1016,-1.1484,9.1953,0.984741,-0.063416,0.161987,0.003906
2026-04-22 14:36:48,-3.1016,-1.1875,9.1992,0.984741,-0.063416,0.161987,0.003967
2026-04-22 14:36:48,-3.1016,-1.2266,9.0781,0.984741,-0.063477,0.161987,0.004028
2026-04-22 14:36:48,-3.0664,-1.2266,9.0820,0.984741,-0.063477,0.162048,0.004028
2026-04-22 14:36:48,-3.1406,-1.2266,9.1211,0.984680,-0.063782,0.162292,0.004272
2026-04-22 14:36:48,-3.1016,-1.1875,9.2266,0.984680,-0.063721,0.162354,0.004272
2026-04-22 14:36:48,-3.0664,-1.1875,9.1211,0.984680,-0.063660,0.162292,0.004211
2026-04-22 14:36:48,-3.1016,-1.1875,9.1563,0.984680,-0.063660,0.162231,0.004211
2026-04-22 14:36:48,-3.1406,-1.1875,9.1953,0.984680,-0.063660,0.162231,0.004211
2026-04-22 14:36:48,-3.1016,-1.2266,9.1563,0.984680,-0.063660,0.162231,0.004211
2026-04-22 14:36:48,-3.1406,-1.2656,9.1172,0.984680,-0.063599,0.162170,0.004211
2026-04-22 14:36:48,-3.2188,-1.2266,9.1992,0.984741,-0.063477,0.162109,0.004211
2026-04-22 14:36:48,-3.1016,-1.1484,9.1602,0.984741,-0.063477,0.162109,0.004150
2026-04-22 14:36:48,-3.1016,-1.1484,9.1602,0.984741,-0.063477,0.162109,0.004150
2026-04-22 14:36:49,-3.0664,-1.2266,9.1602,0.984680,-0.063660,0.162231,0.004211
2026-04-22 14:36:49,-3.0273,-1.1484,9.1602,0.984741,-0.063416,0.161987,0.004150
2026-04-22 14:36:49,-3.0273,-1.1484,9.1602,0.984741,-0.063354,0.161926,0.004211
2026-04-22 14:36:49,-3.1406,-1.1875,9.1602,0.984741,-0.063477,0.161987,0.004272
2026-04-22 14:36:49,-2.9883,-1.1094,9.0820,0.984680,-0.063599,0.162109,0.004333
2026-04-22 14:36:49,-3.1016,-1.2656,9.1602,0.984680,-0.063599,0.162170,0.004333
2026-04-22 14:36:49,-3.0664,-1.2266,9.1211,0.984680,-0.063782,0.162292,0.004456
2026-04-22 14:36:49,-3.1797,-1.2266,9.2656,0.984680,-0.063782,0.162354,0.004517
2026-04-22 14:36:49,-3.1797,-1.1875,9.1602,0.984619,-0.063843,0.162415,0.004639
2026-04-22 14:36:49,-3.1797,-1.2266,9.2305,0.984619,-0.063904,0.162415,0.004639
2026-04-22 14:36:49,-3.1406,-1.2266,9.1602,0.984741,-0.063538,0.161987,0.004395
2026-04-22 14:36:49,-3.0664,-1.1484,9.1172,0.984802,-0.063416,0.161804,0.004395
2026-04-22 14:36:49,-3.1016,-1.1484,9.1953,0.984802,-0.063171,0.161560,0.004395
2026-04-22 14:36:49,-3.1406,-1.1875,9.1211,0.984863,-0.063110,0.161438,0.004395
2026-04-22 14:36:49,-3.1016,-1.1875,9.1172,0.984863,-0.062988,0.161316,0.004395
2026-04-22 14:36:49,-3.1406,-1.2266,9.1211,0.984924,-0.062927,0.161194,0.004333
2026-04-22 14:36:49,-3.1406,-1.1484,9.2266,0.984985,-0.062683,0.160889,0.004150
2026-04-22 14:36:49,-3.1406,-1.2266,9.0430,0.984985,-0.062683,0.160706,0.003906
2026-04-22 14:36:49,-3.0664,-1.1484,9.2695,0.985046,-0.062744,0.160583,0.003601
2026-04-22 14:36:49,-3.0273,-1.1484,9.2656,0.985046,-0.062805,0.160522,0.003235
2026-04-22 14:36:49,-3.1406,-1.1875,9.1953,0.985535,-0.061584,0.157776,0.002441
2026-04-22 14:36:49,-3.1797,-1.2656,9.0781,0.985718,-0.061279,0.156982,0.002380
2026-04-22 14:36:49,-3.0664,-1.3008,9.1563,0.985718,-0.061157,0.156738,0.002319
2026-04-22 14:36:49,-3.0664,-1.2656,9.1563,0.986145,-0.060059,0.154785,0.002258
2026-04-22 14:36:49,-3.0664,-1.1875,9.3047,0.986389,-0.059265,0.153320,0.002258
2026-04-22 14:36:49,-2.9492,-1.0742,9.2695,0.986694,-0.058411,0.151794,0.002258
2026-04-22 14:36:49,-2.8711,-0.9961,9.3086,0.986938,-0.057739,0.150269,0.002380
2026-04-22 14:36:49,-2.9492,-0.8438,9.3477,0.987244,-0.057007,0.148499,0.002625
2026-04-22 14:36:49,-3.2930,-1.3008,8.6953,0.987671,-0.056030,0.146118,0.002930
2026-04-22 14:36:49,-3.3711,-1.4570,8.7734,0.988159,-0.054688,0.143433,0.003052
2026-04-22 14:36:49,-2.4141,-1.1094,9.2656,0.991333,-0.051453,0.120605,0.005615
2026-04-22 14:36:49,-1.6094,-0.6914,9.5820,0.991882,-0.050415,0.116516,0.005371
2026-04-22 14:36:49,-2.1836,-0.9180,9.7695,0.992126,-0.050232,0.114746,0.005493
2026-04-22 14:36:49,-2.1836,-0.9961,9.5781,0.992188,-0.050171,0.114136,0.005615
2026-04-22 14:36:49,-2.2227,-0.8047,9.5391,0.992493,-0.050049,0.111694,0.005981
2026-04-22 14:36:49,-2.3750,-0.9180,9.7695,0.992676,-0.049988,0.109680,0.006226
2026-04-22 14:36:49,-2.4883,-1.1484,9.5039,0.992920,-0.049561,0.107666,0.006287
2026-04-22 14:36:49,-2.0313,-0.7266,9.8828,0.992981,-0.049377,0.107056,0.006287
2026-04-22 14:36:49,-2.0703,-0.9180,9.3477,0.993530,-0.047974,0.102722,0.006287
2026-04-22 14:36:49,-2.0313,-0.6914,9.7656,0.993896,-0.047058,0.099670,0.006287
2026-04-22 14:36:50,-0.8828,-0.6133,9.3047,0.996948,-0.040222,0.067017,0.007019
2026-04-22 14:36:50,-0.6914,-0.4219,9.7305,0.997742,-0.036865,0.055359,0.006104
2026-04-22 14:36:50,-0.6133,-0.1914,9.6875,0.998047,-0.035706,0.050781,0.005615
2026-04-22 14:36:50,-0.7656,-1.0352,9.6133,0.998108,-0.035461,0.049805,0.005676
2026-04-22 14:36:50,-0.6914,-0.4961,9.6875,0.998169,-0.035156,0.048462,0.005798
2026-04-22 14:36:50,-0.8047,-0.6914,9.8047,0.998352,-0.034363,0.045227,0.005981
2026-04-22 14:36:50,-1.0352,-0.7266,9.7305,0.998413,-0.034180,0.044495,0.006042
2026-04-22 14:36:50,-0.6523,-0.4961,9.3867,0.998474,-0.033875,0.043274,0.006104
2026-04-22 14:36:50,-0.8047,-0.6914,9.7656,0.998657,-0.032959,0.040039,0.006226
2026-04-22 14:36:50,-0.4219,-0.4219,9.5820,0.998718,-0.032410,0.038574,0.006226
2026-04-22 14:36:50,-0.6133,-0.4609,9.8047,0.998840,-0.032043,0.034851,0.006958
2026-04-22 14:36:50,-0.6523,-0.4609,9.6484,0.998840,-0.031860,0.034790,0.007141
2026-04-22 14:36:50,-0.6133,-0.4961,9.6094,0.998840,-0.031799,0.034790,0.007202
2026-04-22 14:36:50,-0.7266,-0.5742,9.6875,0.998840,-0.031677,0.034790,0.007324
2026-04-22 14:36:50,-0.6914,-0.5742,9.7305,0.998901,-0.031372,0.034790,0.007385
2026-04-22 14:36:50,-0.6914,-0.7266,9.2266,0.998901,-0.031006,0.034790,0.007507
2026-04-22 14:36:50,-0.6914,-0.6133,9.6133,0.998901,-0.030762,0.034851,0.007507
2026-04-22 14:36:50,-0.6914,-0.5352,9.8438,0.998901,-0.029541,0.035034,0.007507
2026-04-22 14:36:50,-0.6523,-0.5742,9.5000,0.998962,-0.028442,0.035278,0.007446
2026-04-22 14:36:50,-0.7266,-0.6523,9.6914,0.998962,-0.027100,0.035461,0.007324
2026-04-22 14:36:50,-0.9570,-0.4219,9.7266,0.999329,-0.008789,0.035522,0.004395
2026-04-22 14:36:50,-0.9961,-0.2695,9.6484,0.999329,-0.006775,0.035583,0.004456
2026-04-22 14:36:50,-1.1875,-0.1914,9.8828,0.999329,0.002014,0.035645,0.005188
2026-04-22 14:36:50,-0.4961,0.1523,9.9219,0.999329,0.006958,0.035400,0.005676
2026-04-22 14:36:50,-0.5742,-0.0391,9.8438,0.999329,0.011597,0.034912,0.005981
2026-04-22 14:36:50,-0.5742,0.0000,9.6133,0.999268,0.016113,0.034363,0.006226
2026-04-22 14:36:50,-0.7656,0.1914,9.7305,0.999207,0.020813,0.033752,0.006348
2026-04-22 14:36:50,-0.2695,0.4961,9.4648,0.999084,0.026245,0.033386,0.006470
2026-04-22 14:36:50,-0.4219,0.7656,9.7305,0.998901,0.031433,0.033630,0.006531
2026-04-22 14:36:50,-0.6133,0.6133,9.3867,0.998779,0.035706,0.034241,0.006531
2026-04-22 14:36:50,-0.4219,1.9531,9.9648,0.997253,0.064819,0.035400,0.004089
2026-04-22 14:36:50,-0.6133,1.3398,9.5430,0.996826,0.071716,0.034790,0.003235
2026-04-22 14:36:50,-0.4609,1.6836,9.5781,0.996765,0.072632,0.034729,0.003235
2026-04-22 14:36:50,-0.7266,1.5703,9.4219,0.996338,0.078064,0.034729,0.002930
2026-04-22 14:36:50,-0.5352,1.5313,9.3828,0.996033,0.081421,0.034912,0.002869
2026-04-22 14:36:50,-0.9180,1.5313,9.4258,0.995789,0.084717,0.035095,0.002747
2026-04-22 14:36:50,-0.6914,1.6094,9.4648,0.995483,0.087830,0.035278,0.002502
2026-04-22 14:36:50,-0.4609,1.7617,9.2305,0.995239,0.091003,0.035645,0.002319
2026-04-22 14:36:50,-0.5352,1.8789,9.3867,0.994812,0.094727,0.036316,0.002502
2026-04-22 14:36:50,-0.4961,1.9141,9.3828,0.994446,0.098755,0.037109,0.002869
2026-04-22 14:36:50,-0.8047,2.6797,9.2266,0.990967,0.127319,0.042114,0.006348
2026-04-22 14:36:50,-0.7266,2.9883,9.7266,0.990601,0.129761,0.042175,0.006042
2026-04-22 14:36:50,-0.7656,2.8711,9.2305,0.989929,0.134827,0.042297,0.005066
2026-04-22 14:36:51,-0.6133,2.7578,8.8164,0.989807,0.135986,0.042358,0.004822
2026-04-22 14:36:51,-0.8438,2.6055,8.8477,0.989502,0.137939,0.042603,0.004456
2026-04-22 14:36:51,-0.8828,3.0273,9.5781,0.988892,0.142273,0.043091,0.004089
2026-04-22 14:36:51,-0.9180,2.9883,9.5391,0.988586,0.144348,0.043213,0.003906
2026-04-22 14:36:51,-0.9570,2.8711,9.2266,0.988342,0.145874,0.042969,0.003662
2026-04-22 14:36:51,-0.8047,2.9492,9.2695,0.988159,0.147217,0.042664,0.003357
2026-04-22 14:36:51,-0.8438,2.9492,9.0820,0.988037,0.148315,0.042297,0.003052
2026-04-22 14:36:51,-0.7266,3.1016,9.1563,0.986755,0.157227,0.040039,-0.000061
2026-04-22 14:36:51,-0.8047,3.1406,9.1563,0.986389,0.159424,0.039673,-0.000549
2026-04-22 14:36:51,-0.6914,3.2930,9.1953,0.986267,0.160278,0.039612,-0.000549
2026-04-22 14:36:51,-0.7266,3.1797,9.0430,0.986206,0.160583,0.039551,-0.000549
2026-04-22 14:36:51,-0.9570,3.1406,9.0820,0.986145,0.160950,0.039612,-0.000488
2026-04-22 14:36:51,-0.8828,3.1406,9.1953,0.986023,0.161926,0.039429,-0.000366
2026-04-22 14:36:51,-0.9180,3.1016,8.9258,0.985962,0.162231,0.039368,-0.000366
2026-04-22 14:36:51,-0.7266,3.3320,9.2266,0.985901,0.162659,0.039307,-0.000305
2026-04-22 14:36:51,-0.7656,3.2930,9.0820,0.985779,0.163330,0.039062,-0.000366
2026-04-22 14:36:51,-0.5352,3.2930,8.9258,0.985779,0.163513,0.039062,-0.000427
2026-04-22 14:36:51,-0.6133,3.2578,9.1563,0.985962,0.162354,0.038757,-0.000122
2026-04-22 14:36:51,-0.8438,3.0664,9.1211,0.986023,0.162231,0.038757,-0.000061
2026-04-22 14:36:51,-0.8828,3.1406,9.0820,0.986023,0.162109,0.038635,0.000000
2026-04-22 14:36:51,-0.7656,3.0664,8.9609,0.986084,0.161743,0.038635,-0.000122
2026-04-22 14:36:51,-0.6914,3.2188,9.0039,0.986145,0.161377,0.038757,-0.000244
2026-04-22 14:36:51,-0.6914,3.2188,9.1953,0.986145,0.161316,0.038818,-0.000244
2026-04-22 14:36:51,-0.6914,3.1016,9.0039,0.986206,0.161011,0.038879,-0.000305
2026-04-22 14:36:51,-0.6133,3.2188,9.1563,0.986267,0.160583,0.038757,-0.000610
2026-04-22 14:36:51,-0.8828,2.9492,9.0430,0.986267,0.160522,0.038818,-0.000671
2026-04-22 14:36:51,-0.7656,3.0664,9.0391,0.986328,0.160339,0.038818,-0.000732
2026-04-22 14:36:51,-0.7656,3.1016,9.0820,0.986450,0.159424,0.038330,-0.001160
2026-04-22 14:36:51,-0.8047,3.1016,9.2656,0.986450,0.159363,0.038269,-0.001099
2026-04-22 14:36:51,-0.9180,3.0273,9.1172,0.986450,0.159424,0.038025,-0.001099
2026-04-22 14:36:51,-0.6914,3.1016,9.0430,0.986450,0.159485,0.037842,-0.001038
2026-04-22 14:36:51,-0.7656,3.0664,9.1563,0.986511,0.159485,0.037720,-0.001099
2026-04-22 14:36:51,-0.6914,3.0664,8.9258,0.986511,0.159363,0.037781,-0.001221
2026-04-22 14:36:51,-0.6914,3.0664,9.0391,0.986511,0.159241,0.037903,-0.001343
2026-04-22 14:36:51,-0.7266,3.1406,9.1211,0.986511,0.159119,0.037964,-0.001404
2026-04-22 14:36:51,-0.6523,3.1016,9.0000,0.986572,0.158997,0.038025,-0.001404
2026-04-22 14:36:51,-0.8828,3.1016,9.1992,0.986572,0.158936,0.038025,-0.001282
2026-04-22 14:36:51,-1.0742,3.0664,9.1172,0.986633,0.158264,0.039307,-0.001526
2026-04-22 14:36:51,-0.8828,3.0664,8.8867,0.986633,0.158203,0.039368,-0.001587
2026-04-22 14:36:51,-0.9570,2.9492,8.9219,0.986755,0.157288,0.039917,-0.001953
2026-04-22 14:36:51,-0.6914,3.1406,9.2695,0.986816,0.156738,0.040039,-0.002258
2026-04-22 14:36:51,-0.6914,2.9102,9.1602,0.986877,0.156250,0.040161,-0.002380
2026-04-22 14:36:51,-0.5742,2.9883,9.1602,0.986938,0.156006,0.040100,-0.002380
2026-04-22 14:36:52,-0.7656,2.7969,9.0391,0.986938,0.155823,0.040161,-0.002319
2026-04-22 14:36:52,-0.7656,2.9102,9.1211,0.986938,0.155884,0.040161,-0.002319
2026-04-22 14:36:52,-0.8828,2.9492,9.0820,0.986938,0.156189,0.039978,-0.002197
2026-04-22 14:36:52,-0.7266,3.1016,9.1992,0.986877,0.156372,0.039917,-0.002136
2026-04-22 14:36:52,-0.8047,3.0273,9.1953,0.986877,0.156738,0.039429,-0.002075
2026-04-22 14:36:52,-0.8828,2.9883,9.0781,0.986877,0.156738,0.039185,-0.002197
2026-04-22 14:36:52,-0.6523,3.1406,9.1211,0.986877,0.156555,0.038940,-0.002441
2026-04-22 14:36:52,-0.7656,2.9492,9.0781,0.987000,0.156067,0.038696,-0.002747
2026-04-22 14:36:52,-0.9180,3.0273,9.0000,0.987122,0.155151,0.038330,-0.003113
2026-04-22 14:36:52,-0.6914,2.7969,9.0781,0.987244,0.154419,0.038025,-0.003479
2026-04-22 14:36:52,-0.7266,2.9883,9.1172,0.987366,0.153992,0.037659,-0.003540
2026-04-22 14:36:52,-0.6914,2.9883,9.1953,0.987366,0.153809,0.037354,-0.003540
2026-04-22 14:36:52,-0.9570,2.8711,9.2266,0.987427,0.153748,0.037048,-0.003540
2026-04-22 14:36:52,-0.6914,2.9492,9.0391,0.987366,0.153931,0.036743,-0.003601
2026-04-22 14:36:52,-0.4961,3.1016,9.1992,0.987366,0.154480,0.035339,-0.002991
2026-04-22 14:36:52,-0.8047,2.9102,9.0430,0.987366,0.154480,0.035217,-0.002869
2026-04-22 14:36:52,-0.8047,2.9492,9.0781,0.987366,0.154480,0.035156,-0.002808
2026-04-22 14:36:52,-0.6133,2.9883,9.1172,0.987366,0.154419,0.035034,-0.002747
2026-04-22 14:36:52,-0.7266,2.9492,9.1211,0.987366,0.154419,0.034912,-0.002747
2026-04-22 14:36:52,-0.6133,3.0273,9.1172,0.987366,0.154419,0.034851,-0.002747
2026-04-22 14:36:52,-0.7266,2.9883,9.1172,0.987427,0.154297,0.034912,-0.002686
2026-04-22 14:36:52,-0.8047,2.9102,9.0820,0.987427,0.154175,0.034973,-0.002625
2026-04-22 14:36:52,-0.7266,2.9102,9.0781,0.987427,0.154053,0.034973,-0.002625
2026-04-22 14:36:52,-0.6914,2.9102,9.0820,0.987488,0.153870,0.034973,-0.002563
2026-04-22 14:36:52,-0.8438,2.9102,9.1172,0.987671,0.152649,0.035278,-0.002625
2026-04-22 14:36:52,-0.6133,2.9492,9.1953,0.987610,0.153015,0.035156,-0.002441
2026-04-22 14:36:52,-0.7266,2.9102,9.1992,0.987610,0.152893,0.035278,-0.002441
2026-04-22 14:36:52,-0.8047,2.8359,9.1602,0.987610,0.152954,0.035278,-0.002319
2026-04-22 14:36:52,-0.6914,2.9492,9.1563,0.987610,0.153015,0.035278,-0.002258
2026-04-22 14:36:52,-0.6914,2.9883,9.1953,0.987610,0.153076,0.035278,-0.002258
2026-04-22 14:36:52,-0.7266,2.9492,9.1953,0.987549,0.153137,0.035217,-0.002258
2026-04-22 14:36:52,-0.6914,2.9492,9.1992,0.987549,0.153137,0.035217,-0.002258
2026-04-22 14:36:52,-0.7266,2.9102,9.1992,0.987549,0.153137,0.035278,-0.002258
2026-04-22 14:36:52,-0.6914,2.9102,9.0820,0.987549,0.153137,0.035278,-0.002319
2026-04-22 14:36:52,-0.6914,2.9883,9.1953,0.987549,0.153320,0.035461,-0.002441
2026-04-22 14:36:52,-0.6914,2.9883,9.1953,0.987549,0.153137,0.035583,-0.002502
2026-04-22 14:36:52,-0.7266,2.9102,9.0781,0.987610,0.152954,0.035645,-0.002563
2026-04-22 14:36:52,-0.7266,2.8711,9.1172,0.987610,0.152893,0.035645,-0.002563
2026-04-22 14:36:52,-0.6914,2.8359,9.0430,0.987610,0.152771,0.035522,-0.002747
2026-04-22 14:36:52,-0.6133,2.9492,9.1953,0.987671,0.152649,0.035461,-0.002747
2026-04-22 14:36:52,-0.6133,2.9492,9.1211,0.987671,0.152466,0.035461,-0.002747
2026-04-22 14:36:52,-0.6523,2.9883,9.2695,0.987671,0.152222,0.035522,-0.002747
2026-04-22 14:36:53,-0.8438,2.8711,9.1563,0.987732,0.152100,0.035461,-0.002686
2026-04-22 14:36:53,-0.7266,2.9883,9.0781,0.987732,0.152222,0.035095,-0.002625
2026-04-22 14:36:53,-0.6914,2.9102,9.1211,0.987732,0.152222,0.034302,-0.002380
2026-04-22 14:36:53,-0.5742,2.9102,9.1602,0.987732,0.152222,0.034302,-0.002380
2026-04-22 14:36:53,-0.6914,2.8359,9.1953,0.987732,0.152283,0.034302,-0.002319
2026-04-22 14:36:53,-0.6523,2.9102,9.1172,0.987732,0.152405,0.034302,-0.002258
2026-04-22 14:36:53,-0.6523,2.9883,9.2266,0.987732,0.152405,0.034302,-0.002136
2026-04-22 14:36:53,-0.7656,2.9492,9.1172,0.987732,0.152405,0.034241,-0.002014
2026-04-22 14:36:53,-0.6133,2.9102,9.1563,0.987732,0.152405,0.034180,-0.002014
2026-04-22 14:36:53,-0.6523,2.8711,9.1563,0.987732,0.152222,0.034119,-0.001892
2026-04-22 14:36:53,-0.5742,2.9883,9.2305,0.987732,0.152222,0.034058,-0.001831
2026-04-22 14:36:53,-0.7266,2.7578,9.0000,0.987732,0.152222,0.034058,-0.001831
2026-04-22 14:36:53,-0.7266,2.9102,9.0781,0.987610,0.153198,0.033936,-0.002502
2026-04-22 14:36:53,-0.6133,2.9492,9.1211,0.987610,0.153259,0.033936,-0.002563
2026-04-22 14:36:53,-0.5742,2.9492,9.1992,0.987610,0.153259,0.034058,-0.002502
2026-04-22 14:36:53,-0.6914,2.9102,9.1953,0.987610,0.153320,0.034119,-0.002441
2026-04-22 14:36:53,-0.7266,2.9102,9.2266,0.987549,0.153442,0.033997,-0.002441
2026-04-22 14:36:53,-0.7266,2.9492,9.1953,0.987549,0.153564,0.033936,-0.002380
2026-04-22 14:36:53,-0.7656,2.9102,9.1953,0.987549,0.153564,0.033813,-0.002502
2026-04-22 14:36:53,-0.5742,2.9883,9.1602,0.987549,0.153625,0.033752,-0.002563
2026-04-22 14:36:53,-0.5352,2.9492,9.0820,0.987549,0.153625,0.033752,-0.002563
2026-04-22 14:36:53,-0.6133,2.9492,9.0820,0.987549,0.153625,0.033875,-0.002502
2026-04-22 14:36:53,-0.6523,2.9102,9.0781,0.987427,0.154480,0.034058,-0.002502
2026-04-22 14:36:53,-0.7266,2.9492,9.0430,0.987366,0.154785,0.034119,-0.002441
2026-04-22 14:36:53,-0.6914,3.0273,9.1211,0.987366,0.154846,0.034119,-0.002441
2026-04-22 14:36:53,-0.6133,3.0273,9.1992,0.987366,0.154907,0.034119,-0.002380
2026-04-22 14:36:53,-0.7656,2.9492,9.1563,0.987305,0.155029,0.033997,-0.002380
2026-04-22 14:36:53,-0.5352,3.0664,9.0820,0.987305,0.155151,0.033936,-0.002380
2026-04-22 14:36:53,-0.5742,3.0664,9.1563,0.987305,0.155273,0.033875,-0.002380
2026-04-22 14:36:53,-0.6914,3.0273,9.1953,0.987305,0.155334,0.033875,-0.002319
2026-04-22 14:36:53,-0.6914,2.9102,9.0430,0.987244,0.155396,0.033813,-0.002319
2026-04-22 14:36:53,-0.6914,2.9883,9.1602,0.987244,0.155457,0.033813,-0.002319
2026-04-22 14:36:53,-0.6133,2.9492,9.0820,0.987183,0.156189,0.032471,-0.001770
2026-04-22 14:36:53,-0.8047,2.9102,9.1953,0.987183,0.156250,0.032166,-0.001648
2026-04-22 14:36:53,-0.4961,3.0273,8.9609,0.987183,0.156250,0.032104,-0.001648
2026-04-22 14:36:53,-0.5352,2.9883,9.0391,0.987183,0.156372,0.031982,-0.001648
2026-04-22 14:36:53,-0.7656,3.0273,9.3047,0.987122,0.156616,0.031555,-0.001465
2026-04-22 14:36:53,-0.6133,3.0664,9.1602,0.987122,0.156738,0.031189,-0.001404
2026-04-22 14:36:53,-0.5742,3.0273,9.0820,0.987122,0.156860,0.030945,-0.001282
2026-04-22 14:36:53,-0.6523,2.9883,9.0391,0.987122,0.156921,0.030640,-0.001160
2026-04-22 14:36:53,-0.5742,2.9883,9.1211,0.987122,0.156982,0.030457,-0.001038
2026-04-22 14:36:53,-0.6133,2.9102,9.1563,0.987122,0.157043,0.030273,-0.000977
2026-04-22 14:36:54,-0.5742,3.0273,9.1602,0.987122,0.157104,0.030212,-0.000610
2026-04-22 14:36:54,-0.5742,3.0273,9.1211,0.987122,0.157227,0.030273,-0.000549
2026-04-22 14:36:54,-0.5352,3.0273,9.1172,0.987061,0.157349,0.030151,-0.000549
2026-04-22 14:36:54,-0.5352,3.0273,9.1172,0.987061,0.157349,0.030151,-0.000549
2026-04-22 14:36:54,-0.5352,3.0273,9.1563,0.987061,0.157410,0.030151,-0.000549
2026-04-22 14:36:54,-0.5352,3.0664,9.1211,0.987061,0.157410,0.030151,-0.000488
2026-04-22 14:36:54,-0.6133,2.9102,9.1172,0.987061,0.157471,0.030151,-0.000427
2026-04-22 14:36:54,-0.6523,2.9883,9.2266,0.987061,0.157593,0.030029,-0.000366
2026-04-22 14:36:54,-0.6133,3.0273,9.0781,0.987061,0.157715,0.029846,-0.000366
2026-04-22 14:36:54,-0.5352,2.9492,9.0820,0.987061,0.157715,0.029785,-0.000366
2026-04-22 14:36:54,-0.4961,2.9883,9.1172,0.987061,0.157532,0.029602,-0.000305
2026-04-22 14:36:54,-0.5352,2.9883,9.1992,0.987061,0.157532,0.029602,-0.000305
2026-04-22 14:36:54,-0.4961,3.0273,9.1172,0.987061,0.157532,0.029602,-0.000305
2026-04-22 14:36:54,-0.7266,2.9492,9.1211,0.987061,0.157654,0.029785,-0.000244
2026-04-22 14:36:54,-0.6523,2.9883,9.0781,0.987061,0.157715,0.029785,-0.000244
2026-04-22 14:36:54,-0.5352,3.0664,9.1602,0.987061,0.157715,0.029846,-0.000183
2026-04-22 14:36:54,-0.5352,2.9883,9.1563,0.987061,0.157654,0.029846,-0.000183
2026-04-22 14:36:54,-0.5742,3.0273,9.1602,0.987061,0.157654,0.029907,-0.000183
2026-04-22 14:36:54,-0.6133,3.0273,9.1563,0.987061,0.157593,0.029968,-0.000183
2026-04-22 14:36:54,-0.5742,3.0273,9.1211,0.987061,0.157532,0.030029,-0.000183
2026-04-22 14:36:54,-0.5352,3.0273,9.0781,0.987000,0.157837,0.029724,-0.000061
2026-04-22 14:36:54,-0.3828,3.1016,9.0781,0.987000,0.157837,0.029602,-0.000183
2026-04-22 14:36:54,-0.6523,2.9883,9.1172,0.987000,0.157837,0.029663,-0.000183
2026-04-22 14:36:54,-0.5742,3.0273,9.1211,0.987000,0.157776,0.029724,-0.000183
2026-04-22 14:36:54,-0.5742,3.0664,9.1992,0.987000,0.157837,0.029724,-0.000122
2026-04-22 14:36:54,-0.6523,2.9883,9.0781,0.987000,0.157837,0.029663,-0.000061
2026-04-22 14:36:54,-0.5352,3.0664,9.1602,0.987000,0.157776,0.029602,0.000000
2026-04-22 14:36:54,-0.4961,3.1016,9.1172,0.987061,0.157715,0.029602,0.000000
2026-04-22 14:36:54,-0.5742,3.0273,9.1602,0.987061,0.157593,0.029541,-0.000061
2026-04-22 14:36:54,-0.5742,2.9883,9.1602,0.987061,0.157654,0.029541,0.000000
2026-04-22 14:36:54,-0.5742,2.9883,9.0820,0.987061,0.157593,0.029602,-0.000122
2026-04-22 14:36:54,-0.5742,3.0273,9.1211,0.987061,0.157654,0.029663,-0.000122
2026-04-22 14:36:54,-0.5742,2.9883,9.0820,0.987061,0.157654,0.029663,-0.000183
2026-04-22 14:36:54,-0.5742,2.9883,9.1211,0.987061,0.157654,0.029602,-0.000183
2026-04-22 14:36:54,-0.5352,3.0273,9.1172,0.987061,0.157654,0.029602,-0.000183
2026-04-22 14:36:54,-0.5742,3.0273,9.1211,0.987061,0.157654,0.029602,-0.000122
2026-04-22 14:36:54,-0.6133,2.9883,9.1563,0.987061,0.157654,0.029602,-0.000061
2026-04-22 14:36:54,-0.4961,3.0273,9.1563,0.987061,0.157776,0.029541,-0.000061
2026-04-22 14:36:54,-0.6914,2.9883,9.1953,0.987000,0.157837,0.029541,-0.000061
2026-04-22 14:36:54,-0.5352,3.0273,9.0781,0.987000,0.157837,0.029541,-0.000061
2026-04-22 14:36:55,-0.6523,2.9883,9.1172,0.987122,0.157166,0.029541,-0.000061
2026-04-22 14:36:55,-0.5742,3.0273,9.1953,0.987122,0.157104,0.029602,-0.000061
2026-04-22 14:36:55,-0.5352,3.0273,9.0781,0.987244,0.156616,0.029663,-0.000061
2026-04-22 14:36:55,-0.6523,2.9102,9.1172,0.987244,0.156433,0.029724,-0.000061
2026-04-22 14:36:55,-0.5742,2.9883,9.1953,0.987244,0.156311,0.029663,-0.000061
2026-04-22 14:36:55,-0.6523,2.9883,9.1563,0.987305,0.156128,0.029663,-0.000244
2026-04-22 14:36:55,-0.4609,2.9102,9.1563,0.987305,0.155945,0.029602,-0.000427
2026-04-22 14:36:55,-0.4961,2.9883,9.1172,0.987366,0.155823,0.029541,-0.000610
2026-04-22 14:36:55,-0.5742,2.9102,9.1211,0.987366,0.155640,0.029541,-0.000732
2026-04-22 14:36:55,-0.5352,2.9102,9.1172,0.987366,0.155579,0.029541,-0.000916
2026-04-22 14:36:55,-0.4961,3.0273,9.1563,0.987366,0.155640,0.029724,-0.001099
2026-04-22 14:36:55,-0.6133,2.9883,9.1563,0.987366,0.155823,0.029480,-0.000977
2026-04-22 14:36:55,-0.6133,2.9883,9.1172,0.987366,0.155762,0.029419,-0.000916
2026-04-22 14:36:55,-0.5742,2.9102,9.0430,0.987366,0.155762,0.029419,-0.000916
2026-04-22 14:36:55,-0.6523,2.8711,9.0781,0.987366,0.155701,0.029419,-0.000916
2026-04-22 14:36:55,-0.5352,2.9102,9.0781,0.987366,0.155762,0.029419,-0.000977
2026-04-22 14:36:55,-0.5742,2.9492,9.1992,0.987366,0.155823,0.029419,-0.000977
2026-04-22 14:36:55,-0.4961,2.9883,9.1563,0.987366,0.155823,0.029358,-0.000916
2026-04-22 14:36:55,-0.5742,2.9883,9.1602,0.987366,0.155823,0.029358,-0.000854
2026-04-22 14:36:55,-0.5352,2.9883,9.1172,0.987366,0.155823,0.029358,-0.000793
2026-04-22 14:36:55,-0.6133,2.9492,9.1211,0.987244,0.156555,0.029724,-0.000549
2026-04-22 14:36:55,-0.6133,2.9883,9.1172,0.987183,0.157043,0.029541,-0.000488
2026-04-22 14:36:55,-0.6133,3.0273,9.1992,0.987122,0.157043,0.029541,-0.000488
2026-04-22 14:36:55,-0.5352,3.0273,9.1563,0.987122,0.157043,0.029541,-0.000427
2026-04-22 14:36:55,-0.5352,2.9883,9.1172,0.987122,0.157043,0.029541,-0.000366
2026-04-22 14:36:55,-0.4961,2.9883,9.1563,0.987122,0.157043,0.029541,-0.000305
2026-04-22 14:36:55,-0.5742,2.9492,9.1172,0.987122,0.157104,0.029541,-0.000244
2026-04-22 14:36:55,-0.6133,2.9492,9.0820,0.987122,0.157166,0.029480,-0.000183
2026-04-22 14:36:55,-0.5742,2.9883,9.1211,0.987122,0.157166,0.029480,-0.000183
2026-04-22 14:36:55,-0.5742,2.9883,9.1602,0.987122,0.157166,0.029419,-0.000122
2026-04-22 14:36:55,-0.5742,3.0273,9.1953,0.987061,0.157532,0.029114,0.000183
2026-04-22 14:36:55,-0.6133,2.9883,9.1563,0.987061,0.157532,0.029053,0.000244
2026-04-22 14:36:55,-0.6133,2.9102,9.0781,0.987061,0.157532,0.028931,0.000244
2026-04-22 14:36:55,-0.5352,2.9883,9.0781,0.987122,0.157471,0.028931,0.000244
2026-04-22 14:36:55,-0.5352,2.9883,9.1172,0.987122,0.157471,0.028931,0.000183
2026-04-22 14:36:55,-0.5352,3.0273,9.1992,0.987122,0.157410,0.028931,0.000183
2026-04-22 14:36:55,-0.5742,2.9492,9.1172,0.987122,0.157410,0.028931,0.000183
2026-04-22 14:36:55,-0.4609,2.9883,9.1172,0.987122,0.157349,0.028992,0.000244
2026-04-22 14:36:55,-0.4961,3.0273,9.1563,0.987122,0.157410,0.029053,0.000244
2026-04-22 14:36:55,-0.5352,2.9883,9.1172,0.987122,0.157410,0.029114,0.000305
2026-04-22 14:36:56,-0.6133,3.0273,9.0391,0.987000,0.158081,0.029114,0.000488
2026-04-22 14:36:56,-0.6914,2.9492,9.1563,0.987000,0.158264,0.028992,0.000610
2026-04-22 14:36:56,-0.5352,3.0273,9.0000,0.986938,0.158447,0.028809,0.000671
2026-04-22 14:36:56,-0.4609,3.0664,9.1211,0.986938,0.158447,0.028748,0.000732
2026-04-22 14:36:56,-0.5742,2.9492,9.0391,0.986938,0.158447,0.028687,0.000793
2026-04-22 14:36:56,-0.4961,2.9883,9.1172,0.986938,0.158508,0.028564,0.000793
2026-04-22 14:36:56,-0.4219,2.9883,9.0820,0.986938,0.158569,0.028564,0.000793
2026-04-22 14:36:56,-0.4609,3.0664,9.1602,0.986938,0.158630,0.028564,0.000732
2026-04-22 14:36:56,-0.5352,3.0273,9.1172,0.986938,0.158691,0.028687,0.000732
2026-04-22 14:36:56,-0.5352,3.0273,9.1563,0.986877,0.158691,0.028687,0.000732
2026-04-22 14:36:56,-0.6133,2.9883,9.1563,0.986877,0.158752,0.029175,0.000793
2026-04-22 14:36:56,-0.5352,2.9883,9.0781,0.986877,0.158997,0.029236,0.000793
2026-04-22 14:36:56,-0.5352,3.0664,9.1602,0.986816,0.158997,0.029236,0.000854
2026-04-22 14:36:56,-0.6133,2.9883,9.1563,0.986816,0.158997,0.029236,0.000793
2026-04-22 14:36:56,-0.4961,3.0273,9.1172,0.986816,0.158997,0.029297,0.000671
2026-04-22 14:36:56,-0.5352,2.9883,9.1172,0.986816,0.158997,0.029358,0.000732
2026-04-22 14:36:56,-0.5352,2.9883,9.1563,0.986816,0.158997,0.029358,0.000732
2026-04-22 14:36:56,-0.4961,3.0664,9.1211,0.986816,0.159058,0.029297,0.000793
2026-04-22 14:36:56,-0.5742,3.0273,9.1211,0.986816,0.159058,0.029236,0.000854
2026-04-22 14:36:56,-0.6133,3.0273,9.1172,0.986816,0.159058,0.029297,0.000916
2026-04-22 14:36:56,-0.5742,2.9883,9.1211,0.986816,0.159058,0.029419,0.000977
2026-04-22 14:36:56,-0.5742,3.0664,9.1563,0.986816,0.159058,0.029419,0.000916
2026-04-22 14:36:56,-0.5352,3.0273,9.1563,0.986816,0.159058,0.029358,0.000916
2026-04-22 14:36:56,-0.4961,3.0664,9.0820,0.986816,0.159058,0.029297,0.000977
2026-04-22 14:36:56,-0.5742,3.0273,9.0820,0.986816,0.159058,0.029297,0.000977
2026-04-22 14:36:56,-0.5742,3.0273,9.1602,0.986816,0.158997,0.029297,0.000977
2026-04-22 14:36:56,-0.6133,3.0273,9.0781,0.986816,0.158997,0.029236,0.001038
2026-04-22 14:36:56,-0.5742,2.9492,9.0781,0.986816,0.159119,0.029114,0.001099
2026-04-22 14:36:56,-0.4961,3.0273,9.1563,0.986816,0.159119,0.029053,0.001099
2026-04-22 14:36:56,-0.4609,3.0664,9.1211,0.986816,0.159058,0.029053,0.001099
2026-04-22 14:36:56,-0.5352,3.0664,9.1602,0.986816,0.159180,0.028870,0.001038
2026-04-22 14:36:56,-0.5352,3.1016,9.1563,0.986816,0.159180,0.028809,0.000977
2026-04-22 14:36:56,-0.4961,3.0664,9.1211,0.986816,0.159241,0.028809,0.000977
2026-04-22 14:36:56,-0.6133,3.0273,9.1992,0.986816,0.159180,0.028748,0.001038
2026-04-22 14:36:56,-0.5352,2.9883,9.0781,0.986877,0.159119,0.028564,0.001282
2026-04-22 14:36:56,-0.5352,3.0664,9.1211,0.986877,0.158997,0.028442,0.001343
2026-04-22 14:36:56,-0.5742,3.0273,9.1211,0.986877,0.159058,0.028381,0.001465
2026-04-22 14:36:56,-0.5742,3.0273,9.1211,0.986877,0.159058,0.028320,0.001465
2026-04-22 14:36:56,-0.6523,2.9883,9.0781,0.986877,0.159119,0.028259,0.001465
2026-04-22 14:36:56,-0.5742,2.9883,9.0820,0.986877,0.159180,0.028137,0.001526
2026-04-22 14:36:57,-0.4961,3.1016,9.1172,0.986816,0.159424,0.027466,0.001770
2026-04-22 14:36:57,-0.5352,3.0273,9.0781,0.986816,0.159363,0.027527,0.001831
2026-04-22 14:36:57,-0.5742,3.0273,9.1211,0.986816,0.159363,0.027527,0.001831
2026-04-22 14:36:57,-0.5352,3.0273,9.0781,0.986816,0.159302,0.027466,0.001770
2026-04-22 14:36:57,-0.4961,3.0273,9.1172,0.986816,0.159302,0.027466,0.001709
2026-04-22 14:36:57,-0.5352,3.0664,9.1602,0.986816,0.159302,0.027466,0.001709
2026-04-22 14:36:57,-0.5352,3.0273,9.1172,0.986877,0.159302,0.027466,0.001709
2026-04-22 14:36:57,-0.5352,3.0273,9.1172,0.986877,0.159302,0.027527,0.001709
2026-04-22 14:36:57,-0.4609,3.0273,9.1563,0.986816,0.159302,0.027527,0.001648
2026-04-22 14:36:57,-0.4609,3.0664,9.1211,0.986816,0.159302,0.027710,0.001648
2026-04-22 14:36:57,-0.4961,3.0664,9.1953,0.986755,0.159668,0.028442,0.001404
2026-04-22 14:36:57,-0.4219,3.0664,9.1172,0.986755,0.159668,0.028442,0.001404
2026-04-22 14:36:57,-0.4609,3.0273,9.0781,0.986755,0.159668,0.028503,0.001404
2026-04-22 14:36:57,-0.5352,3.0664,9.1602,0.986755,0.159668,0.028564,0.001465
2026-04-22 14:36:57,-0.5742,3.0664,9.1563,0.986755,0.159607,0.028748,0.001526
2026-04-22 14:36:57,-0.6133,3.0273,9.1172,0.986755,0.159607,0.028748,0.001587
2026-04-22 14:36:57,-0.6133,3.0664,9.1211,0.986755,0.159607,0.028748,0.001587
2026-04-22 14:36:57,-0.5352,3.0273,9.0781,0.986755,0.159607,0.028748,0.001587
2026-04-22 14:36:57,-0.4609,3.0664,9.1211,0.986755,0.159668,0.028687,0.001587
2026-04-22 14:36:57,-0.4219,3.1016,9.1602,0.986755,0.159729,0.028687,0.001526
2026-04-22 14:36:57,-0.4961,3.0664,9.1602,0.986755,0.159851,0.028503,0.001404
2026-04-22 14:36:57,-0.5352,3.0664,9.1602,0.986755,0.159851,0.028442,0.001404
2026-04-22 14:36:57,-0.4961,3.1016,9.1563,0.986694,0.159912,0.028381,0.001465
2026-04-22 14:36:57,-0.4961,3.0664,9.1211,0.986694,0.159912,0.028320,0.001465
2026-04-22 14:36:57,-0.4961,3.0664,9.1211,0.986694,0.159973,0.028259,0.001465
2026-04-22 14:36:57,-0.5742,3.0273,9.0820,0.986694,0.159973,0.028259,0.001526
2026-04-22 14:36:57,-0.5742,3.0273,9.1211,0.986694,0.159973,0.028198,0.001526
2026-04-22 14:36:57,-0.4609,3.1016,9.1563,0.986694,0.159912,0.028137,0.001526
2026-04-22 14:36:57,-0.4961,3.1016,9.1172,0.986755,0.159912,0.028137,0.001526
2026-04-22 14:36:57,-0.5352,3.0273,9.1563,0.986755,0.159851,0.028137,0.001526
2026-04-22 14:36:57,-0.4609,3.0664,9.1602,0.986694,0.160156,0.027954,0.001587
2026-04-22 14:36:57,-0.5352,3.0273,9.1172,0.986694,0.160095,0.028015,0.001648
2026-04-22 14:36:57,-0.4961,3.0273,9.0781,0.986694,0.160034,0.028076,0.001709
2026-04-22 14:36:57,-0.5742,3.0664,9.1992,0.986694,0.160034,0.028076,0.001770
2026-04-22 14:36:57,-0.5352,3.0273,9.0391,0.986694,0.160095,0.028076,0.001770
2026-04-22 14:36:57,-0.5742,2.9883,9.1211,0.986694,0.160156,0.028015,0.001831
2026-04-22 14:36:57,-0.4609,3.0664,9.1211,0.986694,0.160156,0.028015,0.001831
2026-04-22 14:36:57,-0.4961,3.0664,9.1211,0.986694,0.160156,0.027954,0.001831
2026-04-22 14:36:57,-0.5352,3.0273,9.1172,0.986694,0.160156,0.027954,0.001831
2026-04-22 14:36:57,-0.5352,3.0664,9.1211,0.986694,0.160156,0.028015,0.001831
2026-04-22 14:36:57,-0.5742,3.0273,9.1602,0.986694,0.159912,0.028259,0.002014
2026-04-22 14:36:57,-0.4961,3.0664,9.1602,0.986694,0.160034,0.028076,0.002014
2026-04-22 14:36:58,-0.4961,3.0664,9.1211,0.986694,0.159973,0.028076,0.001953
2026-04-22 14:36:58,-0.4219,3.1016,9.1211,0.986694,0.159912,0.028076,0.002014
2026-04-22 14:36:58,-0.4961,3.0273,9.1172,0.986755,0.159912,0.028137,0.002075
2026-04-22 14:36:58,-0.5352,3.0273,9.0781,0.986694,0.159912,0.028137,0.002075
2026-04-22 14:36:58,-0.5742,2.9883,9.0820,0.986694,0.159973,0.028320,0.002075
2026-04-22 14:36:58,-0.6133,3.0273,9.1563,0.986694,0.159973,0.028381,0.002075
2026-04-22 14:36:58,-0.5352,3.0664,9.1211,0.986694,0.160034,0.028442,0.002014
2026-04-22 14:36:58,-0.6133,3.0273,9.0781,0.986694,0.160034,0.028381,0.001953
2026-04-22 14:36:58,-0.5352,3.1016,9.2695,0.986694,0.160217,0.028259,0.001831
2026-04-22 14:36:58,-0.5352,3.1016,9.0781,0.986694,0.160278,0.028137,0.001953
2026-04-22 14:36:58,-0.4961,3.1016,9.1563,0.986694,0.160278,0.028076,0.002014
2026-04-22 14:36:58,-0.5352,3.0273,9.1172,0.986694,0.160278,0.028015,0.002014
2026-04-22 14:36:58,-0.4961,3.0273,9.1563,0.986694,0.160278,0.028015,0.002014
2026-04-22 14:36:58,-0.5352,3.0273,9.1172,0.986694,0.160278,0.028076,0.002014
2026-04-22 14:36:58,-0.4961,3.0273,9.0781,0.986694,0.160339,0.028076,0.002014
2026-04-22 14:36:58,-0.5352,3.0273,9.1172,0.986633,0.160339,0.028076,0.002014
2026-04-22 14:36:58,-0.4961,3.0664,9.1602,0.986633,0.160400,0.028137,0.002014
2026-04-22 14:36:58,-0.5352,3.0664,9.0820,0.986633,0.160522,0.028137,0.002075
2026-04-22 14:36:58,-0.5352,3.1016,9.0781,0.986450,0.161621,0.027771,0.001953
2026-04-22 14:36:58,-0.4609,3.0273,9.0781,0.986450,0.161560,0.027771,0.002014
2026-04-22 14:36:58,-0.5352,3.0664,9.0820,0.986450,0.161499,0.027771,0.002014
2026-04-22 14:36:58,-0.6133,2.9883,9.1563,0.986450,0.161560,0.027832,0.002197
2026-04-22 14:36:58,-0.5742,3.0273,9.1211,0.986450,0.161621,0.027771,0.002197
2026-04-22 14:36:58,-0.5352,3.0664,9.1211,0.986450,0.161682,0.027771,0.002197
2026-04-22 14:36:58,-0.4961,3.1016,9.1172,0.986450,0.161682,0.027771,0.002197
2026-04-22 14:36:58,-0.5352,3.0664,9.1211,0.986450,0.161621,0.027771,0.002197
2026-04-22 14:36:58,-0.3828,3.1016,9.1172,0.986450,0.161621,0.027893,0.002136
2026-04-22 14:36:58,-0.4961,3.0664,9.1602,0.986450,0.161560,0.028015,0.002197
2026-04-22 14:36:58,-0.4961,3.1406,9.1211,0.986450,0.161804,0.028259,0.002014
2026-04-22 14:36:58,-0.5742,3.0664,9.0391,0.986450,0.161743,0.028320,0.002075
2026-04-22 14:36:58,-0.6133,3.0273,9.1172,0.986450,0.161682,0.028381,0.002075
2026-04-22 14:36:58,-0.6133,3.0273,9.1172,0.986389,0.161804,0.028320,0.002014
2026-04-22 14:36:58,-0.4961,3.0664,9.0820,0.986389,0.161804,0.028320,0.001953
2026-04-22 14:36:58,-0.5352,3.1016,9.1563,0.986389,0.161804,0.028320,0.001892
2026-04-22 14:36:58,-0.4961,3.1406,9.1211,0.986450,0.161804,0.028259,0.001770
2026-04-22 14:36:58,-0.5352,3.1016,9.0781,0.986450,0.161743,0.028259,0.001770
2026-04-22 14:36:58,-0.5352,3.1406,9.1602,0.986450,0.161743,0.028198,0.001831
2026-04-22 14:36:58,-0.5742,3.0273,9.0820,0.986450,0.161743,0.028076,0.001892
2026-04-22 14:36:58,-0.5352,3.0273,9.0781,0.986450,0.161743,0.027832,0.001831
2026-04-22 14:36:58,-0.5742,3.0273,9.0820,0.986450,0.161743,0.027893,0.001831
2026-04-22 14:36:58,-0.4961,3.0273,9.0781,0.986450,0.161804,0.027893,0.001892
2026-04-22 14:36:58,-0.4609,3.1016,9.0781,0.986450,0.161804,0.027954,0.001892
2026-04-22 14:36:58,-0.5352,3.0664,9.0820,0.986389,0.161865,0.027954,0.001892
2026-04-22 14:36:59,-0.4961,3.1016,9.1172,0.986389,0.161987,0.027893,0.001892
2026-04-22 14:36:59,-0.4219,3.1797,9.0781,0.986389,0.162109,0.027771,0.001953
2026-04-22 14:36:59,-0.5742,3.1016,9.0820,0.986389,0.162109,0.027710,0.002014
2026-04-22 14:36:59,-0.5742,3.0664,9.1172,0.986389,0.162048,0.027649,0.002075
2026-04-22 14:36:59,-0.5352,3.0664,9.1602,0.986389,0.161987,0.027588,0.002075
2026-04-22 14:36:59,-0.4961,3.1016,9.1172,0.986389,0.161926,0.027344,0.002014
2026-04-22 14:36:59,-0.5742,3.0664,9.0781,0.986450,0.161926,0.027344,0.002014
2026-04-22 14:36:59,-0.4219,3.1016,9.1602,0.986450,0.161926,0.027344,0.001831
2026-04-22 14:36:59,-0.4609,3.1016,9.1563,0.986450,0.161804,0.027466,0.001770
2026-04-22 14:36:59,-0.6133,3.0664,9.1211,0.986450,0.161804,0.027527,0.001709
2026-04-22 14:36:59,-0.4961,3.1016,9.0781,0.986450,0.161804,0.027527,0.001709
2026-04-22 14:36:59,-0.4961,3.0273,9.0781,0.986450,0.161804,0.027466,0.001587
2026-04-22 14:36:59,-0.4961,3.0664,9.0430,0.986450,0.161804,0.027466,0.001587
2026-04-22 14:36:59,-0.5352,3.0664,9.0820,0.986450,0.161804,0.027527,0.001526
2026-04-22 14:36:59,-0.5742,3.0273,9.0820,0.986450,0.161804,0.027527,0.001526
2026-04-22 14:36:59,-0.5352,3.0664,9.1211,0.986389,0.162109,0.027710,0.001526
2026-04-22 14:36:59,-0.5352,3.1016,9.0781,0.986389,0.162109,0.027771,0.001526
2026-04-22 14:36:59,-0.5742,3.1016,9.0820,0.986389,0.162048,0.027771,0.001526
2026-04-22 14:36:59,-0.5742,3.1016,9.1602,0.986389,0.161987,0.027832,0.001587
2026-04-22 14:36:59,-0.5352,3.0664,9.0820,0.986389,0.161987,0.027832,0.001648
2026-04-22 14:36:59,-0.4609,3.0664,9.0430,0.986389,0.161987,0.027832,0.001648
2026-04-22 14:36:59,-0.4961,3.0273,9.1172,0.986389,0.161987,0.027832,0.001648
2026-04-22 14:36:59,-0.5352,3.0664,9.1211,0.986389,0.162109,0.027832,0.001587
2026-04-22 14:36:59,-0.5352,3.0664,9.1211,0.986389,0.162109,0.027832,0.001465
2026-04-22 14:36:59,-0.5352,3.1406,9.1602,0.986389,0.162170,0.027771,0.001465
2026-04-22 14:36:59,-0.5742,3.0273,9.0820,0.986328,0.162415,0.027649,0.001221
2026-04-22 14:36:59,-0.6133,3.0664,9.1211,0.986328,0.162415,0.027527,0.001160
2026-04-22 14:36:59,-0.5352,3.1016,9.1172,0.986328,0.162476,0.027344,0.001099
2026-04-22 14:36:59,-0.3828,3.1797,9.1211,0.986328,0.162476,0.027344,0.001099
2026-04-22 14:36:59,-0.5352,3.0273,9.0781,0.986328,0.162415,0.027222,0.001160
2026-04-22 14:36:59,-0.4609,3.1016,9.1172,0.986328,0.162476,0.027161,0.001221
2026-04-22 14:36:59,-0.5352,3.0664,9.0430,0.986328,0.162476,0.027100,0.001282
2026-04-22 14:36:59,-0.5352,3.0664,9.1211,0.986328,0.162537,0.027039,0.001404
2026-04-22 14:36:59,-0.4609,3.1016,9.0781,0.986328,0.162537,0.026978,0.001404
2026-04-22 14:36:59,-0.4219,3.1406,9.1172,0.986328,0.162537,0.026978,0.001404
2026-04-22 14:36:59,-0.6133,3.1406,9.1602,0.986328,0.162415,0.027283,0.001770
2026-04-22 14:36:59,-0.5742,3.1016,9.1211,0.986328,0.162415,0.027283,0.001831
2026-04-22 14:36:59,-0.4609,3.1016,9.0781,0.986328,0.162354,0.027161,0.001892
2026-04-22 14:36:59,-0.5352,3.1016,9.1563,0.986389,0.162354,0.027161,0.001953
2026-04-22 14:36:59,-0.5742,3.1016,9.2305,0.986389,0.162292,0.027161,0.002014
2026-04-22 14:37:00,-0.4219,3.1016,9.0430,0.986389,0.162354,0.026917,0.002197
2026-04-22 14:37:00,-0.3828,3.1016,9.0000,0.986389,0.162354,0.026917,0.002197
2026-04-22 14:37:00,-0.5352,3.1016,9.1563,0.986389,0.162231,0.027100,0.002258
2026-04-22 14:37:00,-0.5352,3.0273,9.1172,0.986389,0.162231,0.027100,0.002258
2026-04-22 14:37:00,-0.4609,3.1016,9.1563,0.986389,0.162231,0.026978,0.002197
2026-04-22 14:37:00,-0.4961,3.0664,9.1211,0.986389,0.162109,0.026917,0.002014
2026-04-22 14:37:00,-0.4961,3.0664,9.1211,0.986389,0.162231,0.026978,0.001953
2026-04-22 14:37:00,-0.4961,3.1406,9.1211,0.986389,0.162292,0.027039,0.001831
2026-04-22 14:37:00,-0.5742,3.0664,9.0391,0.986389,0.162292,0.027100,0.001831
2026-04-22 14:37:00,-0.5742,3.0273,9.1211,0.986389,0.162292,0.027222,0.001709
2026-04-22 14:37:00,-0.4609,3.1016,9.1563,0.986328,0.162354,0.027222,0.001648
2026-04-22 14:37:00,-0.4961,3.0273,9.0391,0.986328,0.162415,0.027161,0.001587
2026-04-22 14:37:00,-0.4609,3.1406,9.1211,0.986328,0.162415,0.027161,0.001587
2026-04-22 14:37:00,-0.4961,3.1016,9.0391,0.986328,0.162415,0.027161,0.001587
2026-04-22 14:37:00,-0.6133,3.0273,9.0781,0.986328,0.162537,0.027100,0.001587
2026-04-22 14:37:00,-0.4609,3.1016,9.0781,0.986328,0.162659,0.026978,0.001648
2026-04-22 14:37:00,-0.4961,3.1016,9.0781,0.986328,0.162598,0.027100,0.001770
2026-04-22 14:37:00,-0.5352,3.1016,9.1172,0.986328,0.162598,0.027100,0.001831
2026-04-22 14:37:00,-0.5742,3.1406,9.1172,0.986328,0.162598,0.027100,0.001831
2026-04-22 14:37:00,-0.5352,3.1016,9.0781,0.986328,0.162476,0.027161,0.001953
2026-04-22 14:37:00,-0.5352,3.1016,9.1563,0.986328,0.162476,0.027161,0.002014
2026-04-22 14:37:00,-0.5352,3.0664,9.1211,0.986328,0.162476,0.027100,0.002014
2026-04-22 14:37:00,-0.4609,3.1016,9.1172,0.986328,0.162476,0.027100,0.002014
2026-04-22 14:37:00,-0.5742,3.0664,9.1172,0.986328,0.162476,0.027039,0.002075
2026-04-22 14:37:00,-0.4609,3.1797,9.1953,0.986328,0.162598,0.026978,0.002075
2026-04-22 14:37:00,-0.5352,3.0664,9.0820,0.986328,0.162781,0.026184,0.001892
2026-04-22 14:37:00,-0.4609,3.0664,9.1211,0.986328,0.162903,0.026062,0.001770
2026-04-22 14:37:00,-0.4609,3.1016,9.1172,0.986267,0.162903,0.026001,0.001709
2026-04-22 14:37:00,-0.4961,3.0664,9.0820,0.986267,0.162903,0.026001,0.001709
2026-04-22 14:37:00,-0.4219,3.0664,9.0781,0.986267,0.162964,0.025940,0.001709
2026-04-22 14:37:00,-0.4961,3.0273,9.0781,0.986267,0.162964,0.025940,0.001709
2026-04-22 14:37:00,-0.3828,3.1406,9.1602,0.986267,0.163025,0.026001,0.001648
2026-04-22 14:37:00,-0.4609,3.1016,9.1172,0.986267,0.163086,0.026001,0.001648
2026-04-22 14:37:00,-0.5352,3.1016,9.0781,0.986267,0.163086,0.026062,0.001648
2026-04-22 14:37:00,-0.5742,3.1406,9.1563,0.986267,0.163025,0.026062,0.001648
2026-04-22 14:37:00,-0.4961,3.1016,9.1172,0.986328,0.162781,0.026001,0.001831
2026-04-22 14:37:00,-0.4609,3.1797,9.1211,0.986328,0.162781,0.026001,0.001892
2026-04-22 14:37:00,-0.4961,3.1016,9.1172,0.986328,0.162659,0.026001,0.001953
2026-04-22 14:37:00,-0.4219,3.1406,9.1563,0.986328,0.162598,0.025940,0.002014
2026-04-22 14:37:00,-0.4609,3.1016,9.1172,0.986389,0.162476,0.025940,0.002136
2026-04-22 14:37:00,-0.5352,3.0273,9.0781,0.986389,0.162415,0.025940,0.002258
2026-04-22 14:37:00,-0.4609,3.1016,9.1172,0.986389,0.162415,0.025940,0.002258
2026-04-22 14:37:01,-0.4961,3.0664,9.0820,0.986389,0.162354,0.025940,0.002319
2026-04-22 14:37:01,-0.5742,2.9883,9.1211,0.986389,0.162354,0.025940,0.002380
2026-04-22 14:37:01,-0.5352,3.0664,9.0820,0.986389,0.162354,0.025818,0.002380
2026-04-22 14:37:01,-0.4609,3.0664,9.1211,0.986328,0.162659,0.025635,0.002319
2026-04-22 14:37:01,-0.4961,3.0664,9.0820,0.986328,0.162720,0.025574,0.002380
2026-04-22 14:37:01,-0.5352,3.1016,9.1172,0.986328,0.162720,0.025452,0.002380
2026-04-22 14:37:01,-0.4961,3.1016,9.1172,0.986328,0.162659,0.025391,0.002380
2026-04-22 14:37:01,-0.4961,3.1016,9.0781,0.986328,0.162659,0.025391,0.002380
2026-04-22 14:37:01,-0.4609,3.1016,9.0781,0.986328,0.162781,0.025269,0.002380
2026-04-22 14:37:01,-0.4609,3.1016,9.0781,0.986328,0.162781,0.025269,0.002380
2026-04-22 14:37:01,-0.4609,3.0664,9.1602,0.986328,0.162720,0.025208,0.002380
2026-04-22 14:37:01,-0.4609,3.0664,9.0820,0.986328,0.162781,0.025146,0.002319
2026-04-22 14:37:01,-0.4609,3.1016,9.0781,0.986328,0.162781,0.025085,0.002319
2026-04-22 14:37:01,-0.4961,3.0664,9.0820,0.986389,0.162659,0.024963,0.002441
2026-04-22 14:37:01,-0.4609,3.0664,9.1211,0.986328,0.162720,0.024902,0.002441
2026-04-22 14:37:01,-0.4219,3.1016,9.0820,0.986328,0.162781,0.024902,0.002502
2026-04-22 14:37:01,-0.4219,3.1016,9.0820,0.986328,0.162720,0.025024,0.002502
2026-04-22 14:37:01,-0.4609,3.0664,9.0820,0.986328,0.162659,0.025146,0.002502
2026-04-22 14:37:01,-0.4609,3.0664,9.0820,0.986328,0.162720,0.025208,0.002563
2026-04-22 14:37:01,-0.4961,3.1016,9.0391,0.986328,0.162781,0.025269,0.002563
2026-04-22 14:37:01,-0.4609,3.1406,9.0820,0.986328,0.162781,0.025330,0.002625
2026-04-22 14:37:01,-0.4961,3.1406,9.1602,0.986328,0.162781,0.025452,0.002686
2026-04-22 14:37:01,-0.4961,3.1016,9.0781,0.986328,0.162720,0.025513,0.002747
2026-04-22 14:37:01,-0.4961,3.0664,9.0430,0.986389,0.162659,0.025146,0.002808
2026-04-22 14:37:01,-0.5352,3.0664,9.0820,0.986389,0.162476,0.024963,0.002869
2026-04-22 14:37:01,-0.4961,3.1016,9.0781,0.986389,0.162476,0.024963,0.002808
2026-04-22 14:37:01,-0.4961,3.1016,9.0781,0.986389,0.162415,0.024963,0.002808
2026-04-22 14:37:01,-0.4609,3.1016,9.1563,0.986389,0.162354,0.024963,0.002808
2026-04-22 14:37:01,-0.4609,3.1406,9.1602,0.986389,0.162292,0.024963,0.002747
2026-04-22 14:37:01,-0.4219,3.1016,9.0820,0.986450,0.162231,0.024963,0.002747
2026-04-22 14:37:01,-0.4961,2.9883,9.0781,0.986450,0.162231,0.025024,0.002747
