Timestamp,ax,ay,az,qr,qi,qj,qk
2026-04-22 14:15:12,-2.7578,6.5117,6.3984,0.911621,0.358520,0.187073,0.073547
2026-04-22 14:15:12,-2.7578,6.5078,6.4375,0.911621,0.358459,0.187073,0.073547
2026-04-22 14:15:12,-2.7578,6.5078,6.4375,0.911499,0.358765,0.187195,0.073425
2026-04-22 14:15:12,-2.7578,6.5078,6.4375,0.911499,0.358765,0.187195,0.073425
2026-04-22 14:15:12,-2.7578,6.5078,6.4727,0.911499,0.358765,0.187195,0.073425
2026-04-22 14:15:12,-2.7578,6.5508,6.4375,0.911499,0.358765,0.187195,0.073425
2026-04-22 14:15:12,-2.7578,6.4727,6.3984,0.911499,0.358765,0.187195,0.073425
2026-04-22 14:15:12,-2.7188,6.5117,6.3984,0.911499,0.358765,0.187256,0.073425
2026-04-22 14:15:12,-2.7188,6.5078,6.4375,0.911499,0.358765,0.187256,0.073425
2026-04-22 14:15:12,-2.7578,6.5078,6.4375,0.911499,0.358765,0.187256,0.073425
2026-04-22 14:15:12,-2.7578,6.5469,6.3984,0.911499,0.358765,0.187195,0.073425
2026-04-22 14:15:12,-2.7578,6.5078,6.4375,0.911499,0.358826,0.187195,0.073425
2026-04-22 14:15:12,-2.7578,6.5078,6.4375,0.911499,0.358765,0.187195,0.073425
2026-04-22 14:15:12,-2.7578,6.5117,6.3984,0.911499,0.358765,0.187195,0.073425
2026-04-22 14:15:12,-2.7578,6.4688,6.4375,0.911499,0.358765,0.187195,0.073425
2026-04-22 14:15:12,-2.7578,6.5078,6.4375,0.911499,0.358765,0.187195,0.073425
2026-04-22 14:15:12,-2.7578,6.5078,6.4375,0.911499,0.358765,0.187195,0.073425
2026-04-22 14:15:12,-2.7578,6.5078,6.4375,0.911499,0.358765,0.187195,0.073425
2026-04-22 14:15:12,-2.7578,6.5078,6.4375,0.911499,0.358765,0.187195,0.073425
2026-04-22 14:15:12,-2.7578,6.5078,6.4375,0.911499,0.358765,0.187195,0.073425
2026-04-22 14:15:12,-2.7578,6.5078,6.4375,0.911499,0.358765,0.187134,0.073425
2026-04-22 14:15:12,-2.7578,6.5078,6.4375,0.911499,0.358765,0.187134,0.073425
2026-04-22 14:15:12,-2.7188,6.5078,6.4375,0.911499,0.358765,0.187134,0.073425
2026-04-22 14:15:12,-2.7578,6.5117,6.3984,0.911499,0.358765,0.187134,0.073425
2026-04-22 14:15:12,-2.7578,6.4688,6.4375,0.911499,0.358765,0.187134,0.073425
2026-04-22 14:15:12,-2.7578,6.5078,6.4375,0.911499,0.358765,0.187134,0.073425
2026-04-22 14:15:13,-2.7578,6.5078,6.4375,0.911499,0.358765,0.187134,0.073425
2026-04-22 14:15:13,-2.7578,6.5078,6.4375,0.911499,0.358765,0.187134,0.073425
2026-04-22 14:15:13,-2.7578,6.5078,6.4375,0.911499,0.358826,0.187134,0.073425
2026-04-22 14:15:13,-2.7578,6.5078,6.4375,0.911499,0.358826,0.187134,0.073425
2026-04-22 14:15:13,-2.7578,6.5078,6.4375,0.911499,0.358826,0.187073,0.073486
2026-04-22 14:15:13,-2.7578,6.5078,6.4375,0.911499,0.358826,0.187073,0.073486
2026-04-22 14:15:13,-2.7969,6.5078,6.3984,0.911499,0.358826,0.187073,0.073486
2026-04-22 14:15:13,-2.7578,6.5078,6.4375,0.911499,0.358826,0.187073,0.073486
2026-04-22 14:15:13,-2.7578,6.5117,6.3984,0.911499,0.358826,0.187073,0.073486
2026-04-22 14:15:13,-2.7578,6.5117,6.3984,0.911499,0.358826,0.187073,0.073486
2026-04-22 14:15:13,-2.7578,6.5117,6.3984,0.911499,0.358826,0.187073,0.073486
2026-04-22 14:15:13,-2.7969,6.5117,6.4375,0.911499,0.358826,0.187073,0.073486
2026-04-22 14:15:13,-2.7578,6.5078,6.4727,0.911499,0.358826,0.187073,0.073486
2026-04-22 14:15:13,-2.7578,6.5078,6.4375,0.911499,0.358826,0.187073,0.073486
2026-04-22 14:15:13,-2.7578,6.5078,6.4375,0.911499,0.358765,0.187073,0.073486
2026-04-22 14:15:13,-2.7578,6.4688,6.4375,0.911499,0.358765,0.187073,0.073486
2026-04-22 14:15:13,-2.7578,6.5078,6.4375,0.911499,0.358765,0.187073,0.073486
2026-04-22 14:15:13,-2.7188,6.5078,6.4375,0.911499,0.358765,0.187073,0.073486
2026-04-22 14:15:13,-2.7578,6.5078,6.4375,0.911499,0.358765,0.187073,0.073486
2026-04-22 14:15:13,-2.7578,6.5078,6.4375,0.911499,0.358765,0.187073,0.073486
2026-04-22 14:15:13,-2.7578,6.5078,6.4375,0.911499,0.358765,0.187073,0.073486
2026-04-22 14:15:13,-2.7188,6.5078,6.4375,0.911499,0.358765,0.187073,0.073486
2026-04-22 14:15:13,-2.7578,6.5078,6.4375,0.911499,0.358765,0.187073,0.073486
2026-04-22 14:15:13,-2.7578,6.4688,6.4375,0.911499,0.358765,0.187073,0.073486
2026-04-22 14:15:13,-2.7578,6.5078,6.4375,0.911499,0.358765,0.187134,0.073486
2026-04-22 14:15:13,-2.7578,6.5117,6.3984,0.911499,0.358765,0.187073,0.073486
2026-04-22 14:15:13,-2.7188,6.5078,6.4375,0.911499,0.358765,0.187073,0.073486
2026-04-22 14:15:13,-2.7578,6.5078,6.4375,0.911499,0.358765,0.187073,0.073486
2026-04-22 14:15:13,-2.7578,6.5508,6.4375,0.911560,0.358765,0.187073,0.073486
2026-04-22 14:15:13,-2.7578,6.5078,6.4375,0.911560,0.358765,0.187073,0.073486
2026-04-22 14:15:13,-2.7578,6.5117,6.3984,0.911560,0.358765,0.187073,0.073486
2026-04-22 14:15:13,-2.7578,6.5078,6.4375,0.911560,0.358765,0.187073,0.073486
2026-04-22 14:15:13,-2.7578,6.5078,6.4375,0.911560,0.358765,0.187073,0.073486
2026-04-22 14:15:13,-2.7578,6.5078,6.4375,0.911560,0.358765,0.187073,0.073486
2026-04-22 14:15:13,-2.7578,6.5078,6.4375,0.911560,0.358765,0.187073,0.073486
2026-04-22 14:15:13,-2.7578,6.5117,6.3984,0.911560,0.358765,0.187073,0.073486
2026-04-22 14:15:13,-2.7578,6.5078,6.4375,0.911560,0.358765,0.187073,0.073486
2026-04-22 14:15:13,-2.7578,6.5078,6.4375,0.911560,0.358765,0.187073,0.073486
2026-04-22 14:15:13,-2.7578,6.5117,6.3984,0.911560,0.358765,0.187073,0.073486
2026-04-22 14:15:13,-2.7188,6.5078,6.4375,0.911560,0.358765,0.187012,0.073486
2026-04-22 14:15:13,-2.7578,6.5078,6.4727,0.911560,0.358765,0.187012,0.073486
2026-04-22 14:15:13,-2.7969,6.5078,6.3984,0.911560,0.358765,0.187012,0.073486
2026-04-22 14:15:13,-2.7578,6.5078,6.4375,0.911560,0.358765,0.187012,0.073486
2026-04-22 14:15:13,-2.7578,6.5078,6.4375,0.911560,0.358765,0.187012,0.073486
2026-04-22 14:15:14,-2.7578,6.5117,6.3984,0.911560,0.358765,0.187012,0.073486
2026-04-22 14:15:14,-2.7578,6.5078,6.4375,0.911560,0.358765,0.187012,0.073486
2026-04-22 14:15:14,-2.7578,6.5117,6.3984,0.911560,0.358765,0.187012,0.073486
2026-04-22 14:15:14,-2.7188,6.5078,6.4375,0.911560,0.358765,0.187012,0.073486
2026-04-22 14:15:14,-2.7578,6.5078,6.4375,0.911560,0.358765,0.187012,0.073486
2026-04-22 14:15:14,-2.7188,6.5117,6.3984,0.911560,0.358765,0.186951,0.073486
2026-04-22 14:15:14,-2.7578,6.5078,6.4375,0.911560,0.358765,0.186951,0.073486
2026-04-22 14:15:14,-2.7578,6.5078,6.4727,0.911560,0.358765,0.186951,0.073486
2026-04-22 14:15:14,-2.7578,6.5117,6.3984,0.911560,0.358765,0.186951,0.073486
2026-04-22 14:15:14,-2.7578,6.5117,6.3984,0.911560,0.358765,0.186951,0.073486
2026-04-22 14:15:14,-2.7578,6.5078,6.4375,0.911560,0.358765,0.186951,0.073547
2026-04-22 14:15:14,-2.7578,6.5117,6.3984,0.911560,0.358765,0.186951,0.073547
2026-04-22 14:15:14,-2.7578,6.5078,6.4375,0.911560,0.358765,0.186951,0.073547
2026-04-22 14:15:14,-2.7578,6.5078,6.4375,0.911560,0.358765,0.186951,0.073547
2026-04-22 14:15:14,-2.7578,6.5078,6.4375,0.911560,0.358765,0.186951,0.073547
2026-04-22 14:15:14,-2.7578,6.5078,6.4727,0.911560,0.358765,0.186951,0.073547
2026-04-22 14:15:14,-2.7188,6.5078,6.4375,0.911560,0.358765,0.186951,0.073547
2026-04-22 14:15:14,-2.7578,6.5078,6.4727,0.911560,0.358765,0.186951,0.073547
2026-04-22 14:15:14,-2.7969,6.5117,6.4375,0.911560,0.358765,0.186951,0.073547
2026-04-22 14:15:14,-2.7578,6.5078,6.4375,0.911560,0.358765,0.186951,0.073547
2026-04-22 14:15:14,-2.7578,6.5078,6.4375,0.911560,0.358765,0.186951,0.073547
2026-04-22 14:15:14,-2.7578,6.5508,6.4375,0.911560,0.358765,0.186890,0.073547
2026-04-22 14:15:14,-2.7578,6.5078,6.4727,0.911560,0.358765,0.186890,0.073547
2026-04-22 14:15:14,-2.7578,6.5078,6.4375,0.911560,0.358765,0.186890,0.073547
2026-04-22 14:15:14,-2.7578,6.5078,6.4375,0.911560,0.358765,0.186890,0.073547
2026-04-22 14:15:14,-2.7969,6.5117,6.4375,0.911560,0.358765,0.186890,0.073547
2026-04-22 14:15:14,-2.7578,6.5078,6.4375,0.911560,0.358765,0.186890,0.073547
2026-04-22 14:15:14,-2.7188,6.5078,6.4375,0.911560,0.358765,0.186890,0.073547
2026-04-22 14:15:14,-2.7188,6.5078,6.4375,0.911560,0.358765,0.186890,0.073547
2026-04-22 14:15:14,-2.7578,6.5078,6.4375,0.911560,0.358765,0.186890,0.073547
2026-04-22 14:15:14,-2.7578,6.5078,6.4727,0.911560,0.358704,0.186890,0.073547
2026-04-22 14:15:14,-2.7578,6.5078,6.4375,0.911560,0.358704,0.186890,0.073547
2026-04-22 14:15:14,-2.7578,6.5508,6.4375,0.911560,0.358704,0.186890,0.073547
2026-04-22 14:15:14,-2.7578,6.5078,6.4375,0.911560,0.358704,0.186890,0.073547
2026-04-22 14:15:14,-2.7578,6.5078,6.4375,0.911560,0.358704,0.186890,0.073547
2026-04-22 14:15:14,-2.7969,6.5117,6.4375,0.911560,0.358704,0.186890,0.073547
2026-04-22 14:15:14,-2.7578,6.5078,6.4727,0.911560,0.358704,0.186890,0.073547
2026-04-22 14:15:14,-2.7578,6.5078,6.4375,0.911560,0.358704,0.186890,0.073547
2026-04-22 14:15:14,-2.7578,6.5078,6.4375,0.911560,0.358704,0.186890,0.073547
2026-04-22 14:15:14,-2.7578,6.5078,6.4375,0.911560,0.358704,0.186890,0.073547
2026-04-22 14:15:15,-2.7578,6.5078,6.4375,0.911621,0.358704,0.186890,0.073547
2026-04-22 14:15:15,-3.8672,7.3164,6.6289,0.910950,0.358582,0.190247,0.073486
2026-04-22 14:15:15,-3.1016,8.1211,7.1641,0.910645,0.357178,0.194031,0.074158
2026-04-22 14:15:15,-3.7148,6.5078,5.7070,0.911133,0.355103,0.195312,0.074829
2026-04-22 14:15:15,-4.5977,6.3242,6.0898,0.911621,0.353577,0.196411,0.073181
2026-04-22 14:15:15,-2.5664,6.3203,6.4023,0.912231,0.352356,0.196472,0.071594
2026-04-22 14:15:15,-2.7969,6.4375,6.4375,0.912781,0.351318,0.195190,0.072876
2026-04-22 14:15:15,-2.8359,7.0078,6.5117,0.913574,0.349976,0.192932,0.075012
2026-04-22 14:15:15,-2.7578,6.0156,6.9727,0.914185,0.349060,0.190857,0.077271
2026-04-22 14:15:15,-2.6445,6.2813,6.5117,0.914795,0.348145,0.188599,0.079956
2026-04-22 14:15:15,-2.4531,6.5898,7.3125,0.923828,0.327332,0.175720,0.092468
2026-04-22 14:15:15,-2.6055,6.3984,6.9336,0.926208,0.320557,0.174377,0.094543
2026-04-22 14:15:15,-2.5273,6.3203,6.9688,0.928406,0.314331,0.173462,0.095886
2026-04-22 14:15:15,-2.2969,5.8242,6.7813,0.930420,0.307861,0.173401,0.097107
2026-04-22 14:15:15,-2.6055,5.8242,7.1641,0.932434,0.301025,0.174194,0.098022
2026-04-22 14:15:15,-2.4531,5.7461,7.5508,0.933166,0.298401,0.174561,0.098328
2026-04-22 14:15:15,-2.2617,5.5938,7.5898,0.936951,0.285400,0.174683,0.100952
2026-04-22 14:15:15,-2.7188,5.5938,7.8516,0.939148,0.277832,0.173767,0.103149
2026-04-22 14:15:15,-3.1016,5.5938,8.3164,0.941650,0.269531,0.171936,0.105103
2026-04-22 14:15:15,-2.7188,5.4414,7.9297,0.944458,0.260559,0.169495,0.106995
2026-04-22 14:15:15,-2.6445,3.7539,7.8906,0.960083,0.205017,0.150024,0.117188
2026-04-22 14:15:15,-2.9883,3.8320,8.3125,0.963440,0.192993,0.142395,0.119202
2026-04-22 14:15:15,-2.5664,3.7930,8.6172,0.965637,0.185303,0.137634,0.119324
2026-04-22 14:15:15,-2.2969,3.7539,8.9609,0.967957,0.177490,0.132446,0.118530
2026-04-22 14:15:15,-1.7227,3.5625,9.5000,0.970154,0.169556,0.126770,0.117981
2026-04-22 14:15:15,-1.7227,2.9102,8.2344,0.972351,0.161621,0.119507,0.119019
2026-04-22 14:15:15,-1.7617,2.8711,8.2734,0.973572,0.156738,0.114563,0.120178
2026-04-22 14:15:15,-2.0313,2.8359,8.3516,0.976013,0.146484,0.104370,0.122864
2026-04-22 14:15:15,-1.8008,2.7969,8.6563,0.977356,0.140198,0.099121,0.123840
2026-04-22 14:15:15,-1.3398,2.6055,9.6094,0.978516,0.134583,0.094788,0.124146
2026-04-22 14:15:15,0.0781,1.4180,9.5039,0.986633,0.088440,0.050903,0.126892
2026-04-22 14:15:15,0.6133,1.1875,9.7305,0.986938,0.085938,0.048828,0.127319
2026-04-22 14:15:15,0.1914,1.3008,9.8867,0.987244,0.082275,0.046082,0.128540
2026-04-22 14:15:15,-0.1914,0.9961,9.3828,0.987732,0.072998,0.038818,0.132324
2026-04-22 14:15:15,-0.8047,1.1484,9.5430,0.987976,0.066956,0.033752,0.135071
2026-04-22 14:15:15,-1.0352,1.2266,9.3477,0.988159,0.061035,0.028320,0.137878
2026-04-22 14:15:15,-0.6914,1.0742,9.3477,0.988403,0.055054,0.023315,0.139709
2026-04-22 14:15:15,-0.1914,0.6914,9.7656,0.988770,0.050171,0.020752,0.139343
2026-04-22 14:15:15,0.4609,0.4961,9.7305,0.989136,0.046082,0.020142,0.138000
2026-04-22 14:15:15,0.0781,0.2305,9.7266,0.989624,0.042175,0.021851,0.135498
2026-04-22 14:15:16,-0.2305,0.2695,9.8438,0.990540,0.028198,0.023132,0.132080
2026-04-22 14:15:16,-0.1523,0.1523,9.5430,0.990601,0.025757,0.020569,0.132690
2026-04-22 14:15:16,-0.0391,0.1133,9.5820,0.990662,0.024719,0.019775,0.132751
2026-04-22 14:15:16,0.1914,0.0781,9.6875,0.990601,0.024170,0.019836,0.132935
2026-04-22 14:15:16,0.1133,0.1523,9.6484,0.990601,0.023804,0.020386,0.133301
2026-04-22 14:15:16,-0.1523,0.2695,9.7305,0.990540,0.023376,0.021179,0.133606
2026-04-22 14:15:16,-0.3438,0.1914,9.8828,0.990479,0.023132,0.021973,0.133850
2026-04-22 14:15:16,-0.3438,0.2305,9.8438,0.990479,0.022888,0.022644,0.133850
2026-04-22 14:15:16,-0.3438,0.1523,9.5820,0.990479,0.022644,0.023315,0.133728
2026-04-22 14:15:16,-0.4961,0.2305,9.6523,0.990479,0.022400,0.023682,0.133728
2026-04-22 14:15:16,-0.1133,0.0781,9.6914,0.990051,0.022339,0.026550,0.136169
2026-04-22 14:15:16,0.0781,0.0391,9.6484,0.989929,0.023132,0.026978,0.137024
2026-04-22 14:15:16,-0.3438,0.1523,9.6484,0.989746,0.023865,0.027283,0.138184
2026-04-22 14:15:16,-0.3438,0.1914,9.6523,0.989563,0.024658,0.027466,0.139282
2026-04-22 14:15:16,-0.7656,0.3438,9.8438,0.989441,0.025452,0.027283,0.140137
2026-04-22 14:15:16,-0.6523,0.3828,10.0039,0.989380,0.026367,0.026917,0.140564
2026-04-22 14:15:16,-0.2695,0.3047,9.6875,0.989319,0.027161,0.026367,0.140869
2026-04-22 14:15:16,-0.4961,0.3828,9.8867,0.989319,0.027405,0.026245,0.140930
2026-04-22 14:15:16,-0.2695,0.3438,9.5039,0.989258,0.028381,0.024048,0.141602
2026-04-22 14:15:16,-0.1914,0.3047,9.5039,0.989136,0.028870,0.021667,0.142395
2026-04-22 14:15:16,-0.1523,0.5742,9.7695,0.988159,0.033020,0.002380,0.149658
2026-04-22 14:15:16,0.0391,0.5742,10.0352,0.988220,0.033264,0.000671,0.149292
2026-04-22 14:15:16,-0.0391,0.5352,9.8867,0.988281,0.033264,-0.001160,0.148926
2026-04-22 14:15:16,-0.0781,0.4961,9.7656,0.988281,0.032959,-0.003967,0.148865
2026-04-22 14:15:16,0.5352,0.2305,9.7266,0.988159,0.032288,-0.008301,0.149963
2026-04-22 14:15:16,0.3438,0.3828,9.8867,0.987793,0.031311,-0.013611,0.151794
2026-04-22 14:15:16,0.2305,0.4219,9.6914,0.987366,0.030151,-0.020386,0.154297
2026-04-22 14:15:16,-0.0781,0.5742,9.1992,0.986694,0.029297,-0.028687,0.157410
2026-04-22 14:15:16,0.7656,0.2305,10.0039,0.986023,0.028687,-0.035950,0.160156
2026-04-22 14:15:16,1.2266,0.0781,9.7305,0.985474,0.028564,-0.041443,0.162354
2026-04-22 14:15:16,2.2969,0.1133,10.3867,0.981567,0.028320,-0.096741,0.162231
2026-04-22 14:15:16,3.4102,-0.0781,9.8438,0.980713,0.033875,-0.119629,0.151001
2026-04-22 14:15:16,3.2930,-0.0391,9.5000,0.980530,0.034546,-0.123047,0.148987
2026-04-22 14:15:16,3.4492,-0.0781,9.1211,0.980347,0.035156,-0.127380,0.146423
2026-04-22 14:15:16,2.7188,0.0391,8.8438,0.979736,0.036316,-0.136841,0.141724
2026-04-22 14:15:16,2.9883,-0.1523,8.8164,0.979492,0.036560,-0.139648,0.140503
2026-04-22 14:15:16,2.9492,-0.0391,8.8867,0.979187,0.037109,-0.143127,0.139160
2026-04-22 14:15:16,2.9883,0.0781,9.1563,0.978394,0.038879,-0.149902,0.137024
2026-04-22 14:15:16,3.1016,0.1133,9.2266,0.977783,0.040100,-0.154236,0.136108
2026-04-22 14:15:16,3.0664,0.1133,9.3867,0.977112,0.041199,-0.158875,0.135132
2026-04-22 14:15:17,3.2578,0.6523,9.3086,0.973022,0.052368,-0.185913,0.126160
2026-04-22 14:15:17,3.7930,0.2305,8.8477,0.972046,0.054443,-0.190796,0.125366
2026-04-22 14:15:17,3.4844,0.3828,8.8867,0.971008,0.056580,-0.195862,0.124939
2026-04-22 14:15:17,3.6758,0.5352,9.0820,0.969849,0.058777,-0.200989,0.124512
2026-04-22 14:15:17,4.0625,0.6523,8.8438,0.969604,0.059326,-0.202209,0.124451
2026-04-22 14:15:17,4.8633,0.4219,8.8164,0.968323,0.062073,-0.207520,0.124146
2026-04-22 14:15:17,4.5977,0.5352,8.6563,0.967651,0.063538,-0.210083,0.124207
2026-04-22 14:15:17,4.8633,0.2695,8.5430,0.967407,0.064575,-0.210999,0.124512
2026-04-22 14:15:17,4.0234,0.6914,8.7344,0.967224,0.065430,-0.211304,0.124817
2026-04-22 14:15:17,4.3281,0.5352,8.7383,0.967041,0.066040,-0.211487,0.125366
2026-04-22 14:15:17,4.0625,0.8047,8.6602,0.971985,0.065918,-0.181763,0.133606
2026-04-22 14:15:17,3.7148,0.5352,9.0781,0.974243,0.064575,-0.169189,0.134277
2026-04-22 14:15:17,3.5234,0.7656,9.6875,0.975891,0.063965,-0.159363,0.134644
2026-04-22 14:15:17,3.8320,0.5352,9.6133,0.977905,0.063293,-0.148071,0.133484
2026-04-22 14:15:17,2.1836,0.7656,8.8477,0.980042,0.062744,-0.135254,0.131592
2026-04-22 14:15:17,1.0742,1.4180,8.5000,0.982117,0.062317,-0.122192,0.129150
2026-04-22 14:15:17,2.1836,0.9180,9.1992,0.983765,0.062073,-0.110413,0.127075
2026-04-22 14:15:17,2.0703,0.8828,9.2656,0.985168,0.061401,-0.098877,0.126221
2026-04-22 14:15:17,2.3359,0.6914,9.8477,0.986450,0.060242,-0.086609,0.125610
2026-04-22 14:15:17,3.1797,0.6133,10.5313,0.987610,0.058716,-0.075317,0.124512
2026-04-22 14:15:17,-2.9883,1.1484,6.2070,0.990723,0.036133,0.041626,0.123962
2026-04-22 14:15:17,-0.3828,0.5352,10.8008,0.989624,0.034546,0.062195,0.124939
2026-04-22 14:15:17,-0.7266,0.8047,10.1523,0.989319,0.034180,0.066345,0.125244
2026-04-22 14:15:17,-1.1875,1.0742,10.0352,0.988647,0.032471,0.075684,0.125732
2026-04-22 14:15:17,-0.3438,0.8438,10.3047,0.987915,0.028320,0.086548,0.125610
2026-04-22 14:15:17,-0.1914,0.5352,10.8789,0.986816,0.021912,0.099182,0.125916
2026-04-22 14:15:17,-1.6836,0.8047,9.1602,0.985596,0.014038,0.112488,0.125610
2026-04-22 14:15:17,-4.3281,0.8828,7.2070,0.984497,0.007080,0.124695,0.123352
2026-04-22 14:15:17,-2.3750,-0.1133,10.1133,0.984192,0.005676,0.127380,0.122742
2026-04-22 14:15:17,-1.8789,-0.1133,10.1914,0.983398,0.002686,0.134277,0.122009
2026-04-22 14:15:17,-4.1367,-0.0781,9.2695,0.967407,-0.032898,0.222229,0.117126
2026-04-22 14:15:17,-3.7148,-0.4961,9.1172,0.964233,-0.037903,0.237122,0.112366
2026-04-22 14:15:17,-3.9453,-0.1914,8.5820,0.960815,-0.042969,0.251770,0.107849
2026-04-22 14:15:17,-4.6367,-0.1133,7.1641,0.957336,-0.047485,0.265381,0.103821
2026-04-22 14:15:17,-5.3242,-0.4219,7.7344,0.953857,-0.051392,0.278442,0.100159
2026-04-22 14:15:17,-5.6328,-0.8828,7.7734,0.953125,-0.052124,0.280823,0.099609
2026-04-22 14:15:17,-4.5586,-1.0352,8.6602,0.945312,-0.057739,0.305298,0.098999
2026-04-22 14:15:17,-4.7891,-0.9180,8.3516,0.939636,-0.061157,0.319763,0.105164
2026-04-22 14:15:17,-5.8984,-0.1914,7.1289,0.934204,-0.064636,0.332397,0.112061
2026-04-22 14:15:17,-6.5859,-0.5352,4.9805,0.928894,-0.066467,0.344910,0.117615
2026-04-22 14:15:18,-8.6602,-0.4219,6.6641,0.901855,-0.074707,0.400940,0.142639
2026-04-22 14:15:18,-9.6523,-0.0781,6.2813,0.907288,-0.076660,0.386902,0.145691
2026-04-22 14:15:18,-8.8125,0.0781,6.2070,0.914124,-0.077820,0.371826,0.141846
2026-04-22 14:15:18,-6.5078,0.1914,5.9766,0.919678,-0.078857,0.359253,0.137634
2026-04-22 14:15:18,-6.5898,-0.2695,6.1680,0.925049,-0.078796,0.347351,0.132202
2026-04-22 14:15:18,-6.0156,-0.8438,7.3516,0.929749,-0.078308,0.336426,0.127625
2026-04-22 14:15:18,-5.8242,-0.8438,7.7383,0.934265,-0.077637,0.325256,0.123596
2026-04-22 14:15:18,-6.0156,-1.1094,7.4297,0.939331,-0.076721,0.312073,0.119690
2026-04-22 14:15:18,-4.8281,-0.6523,7.6992,0.944580,-0.076050,0.297791,0.115356
2026-04-22 14:15:18,-5.0547,-0.7266,7.3516,0.948914,-0.075378,0.285461,0.111511
2026-04-22 14:15:18,-2.1445,-1.2656,9.5039,0.980835,-0.057312,0.146423,0.115173
2026-04-22 14:15:18,-2.5273,-0.5742,9.7305,0.984558,-0.048645,0.124939,0.112488
2026-04-22 14:15:18,-2.4141,-0.5742,9.7305,0.987061,-0.042664,0.108154,0.110413
2026-04-22 14:15:18,-1.8398,-0.6133,9.8047,0.988892,-0.038391,0.093567,0.108704
2026-04-22 14:15:18,-1.6836,-0.7266,9.4609,0.990417,-0.034302,0.078796,0.107849
2026-04-22 14:15:18,-1.6484,-0.6914,9.1602,0.991760,-0.029846,0.063538,0.107361
2026-04-22 14:15:18,-0.2695,-0.5352,9.6914,0.993591,-0.021667,0.034912,0.105042
2026-04-22 14:15:18,0.0391,-0.4609,9.8047,0.993774,-0.020996,0.031799,0.104675
2026-04-22 14:15:18,-0.0781,-0.4961,9.5039,0.994324,-0.017517,0.015137,0.104004
2026-04-22 14:15:18,0.0781,-0.1523,9.4648,0.994324,-0.013672,-0.005554,0.105408
2026-04-22 14:15:18,2.8711,-0.0781,8.9609,0.987488,0.005127,-0.117615,0.105103
2026-04-22 14:15:18,2.9102,-0.1133,9.6133,0.983826,0.012878,-0.144958,0.104187
2026-04-22 14:15:18,3.2188,-0.0781,9.6523,0.980835,0.017517,-0.163879,0.104004
2026-04-22 14:15:18,4.4063,0.0781,9.5430,0.977661,0.021118,-0.181824,0.103271
2026-04-22 14:15:18,5.0547,0.0781,9.4609,0.974670,0.023621,-0.197510,0.101990
2026-04-22 14:15:18,4.9023,0.0000,8.2383,0.972229,0.025940,-0.209717,0.100830
2026-04-22 14:15:18,3.8672,0.0391,7.5117,0.969849,0.028015,-0.220215,0.100281
2026-04-22 14:15:18,4.2539,-0.1914,7.9297,0.967224,0.030151,-0.231079,0.100708
2026-04-22 14:15:18,4.4805,0.0000,7.7383,0.964478,0.032898,-0.241455,0.101685
2026-04-22 14:15:18,4.5586,0.0391,8.6602,0.962097,0.035889,-0.250061,0.102417
2026-04-22 14:15:18,6.2813,0.2305,8.1953,0.958374,0.048523,-0.257568,0.113464
2026-04-22 14:15:18,5.1328,0.6133,8.6953,0.962036,0.047241,-0.241638,0.117920
2026-04-22 14:15:18,3.4492,1.5703,9.3867,0.964661,0.045166,-0.231140,0.118164
2026-04-22 14:15:18,4.3672,1.3789,10.2656,0.968567,0.041687,-0.218323,0.111450
2026-04-22 14:15:18,4.5977,0.5352,10.0000,0.972656,0.037354,-0.205322,0.101807
2026-04-22 14:15:18,5.5938,-0.0391,9.1602,0.973267,0.036499,-0.203247,0.100403
2026-04-22 14:15:18,3.5625,0.1523,9.1563,0.978333,0.027222,-0.182007,0.094727
2026-04-22 14:15:18,2.6445,0.3438,8.6992,0.979187,0.024963,-0.177795,0.094482
2026-04-22 14:15:18,2.0703,0.3828,9.0039,0.983826,0.009705,-0.152283,0.094116
2026-04-22 14:15:18,2.7969,0.2695,9.5039,0.986145,-0.000916,-0.136658,0.094299
2026-04-22 14:15:19,1.4922,-2.0313,9.6484,0.986816,-0.116516,-0.041992,0.104065
2026-04-22 14:15:19,-0.4961,-1.9531,9.5391,0.986816,-0.116577,-0.041992,0.104126
2026-04-22 14:15:19,-1.1484,-2.1055,8.1992,0.984070,-0.137817,-0.031006,0.107849
2026-04-22 14:15:19,-0.9961,-3.3711,9.1563,0.980896,-0.164734,-0.021118,0.101379
2026-04-22 14:15:19,-1.7617,-2.2969,11.1094,0.978821,-0.180969,-0.016663,0.094360
2026-04-22 14:15:19,0.2695,-3.9063,9.5430,0.976685,-0.196167,-0.013977,0.085999
2026-04-22 14:15:19,-0.2305,-4.2148,9.2305,0.974182,-0.210815,-0.012512,0.079895
2026-04-22 14:15:19,-0.3828,-4.1367,8.8164,0.971558,-0.223572,-0.012939,0.077271
2026-04-22 14:15:19,0.6523,-3.7539,7.8945,0.968811,-0.235657,-0.013367,0.075317
2026-04-22 14:15:19,0.6523,-4.5977,7.9336,0.965881,-0.247314,-0.012268,0.075500
2026-04-22 14:15:19,1.7617,-5.5156,6.9688,0.946533,-0.312683,-0.011047,0.078430
2026-04-22 14:15:19,-0.5742,-5.7070,6.9688,0.938416,-0.334595,-0.009583,0.085205
2026-04-22 14:15:19,-1.4570,-5.8594,7.5508,0.929260,-0.357910,-0.006470,0.091553
2026-04-22 14:15:19,-1.7617,-5.7461,8.0820,0.923218,-0.372986,-0.004700,0.092346
2026-04-22 14:15:19,0.4609,-6.7461,6.3203,0.918030,-0.386719,-0.003540,0.087463
2026-04-22 14:15:19,0.9961,-7.2070,5.4023,0.913025,-0.399231,-0.001038,0.083435
2026-04-22 14:15:19,0.2695,-8.4609,5.4414,0.908081,-0.410706,0.002563,0.081726
2026-04-22 14:15:19,-1.7227,-7.7383,6.6641,0.902100,-0.423462,0.007202,0.082947
2026-04-22 14:15:19,-2.3359,-7.9336,6.8555,0.899475,-0.428833,0.008850,0.083069
2026-04-22 14:15:19,-0.4961,-7.3125,6.0156,0.890686,-0.447266,0.012146,0.080383
2026-04-22 14:15:19,-1.1484,-8.8438,4.8633,0.864136,-0.495666,0.015747,0.085693
2026-04-22 14:15:19,-0.8047,-9.0820,4.2539,0.862000,-0.500244,0.011719,0.080688
2026-04-22 14:15:19,-0.0391,-9.4219,4.3672,0.862244,-0.500549,0.009155,0.076721
2026-04-22 14:15:19,-0.3047,-9.0781,4.7891,0.862854,-0.499939,0.007690,0.073975
2026-04-22 14:15:19,-0.0781,-9.3047,5.1328,0.863770,-0.498779,0.006714,0.071350
2026-04-22 14:15:19,0.0000,-9.0430,5.0195,0.865295,-0.496582,0.006226,0.068176
2026-04-22 14:15:19,0.3438,-9.1953,5.0195,0.867065,-0.493835,0.006226,0.065063
2026-04-22 14:15:19,0.6914,-8.6992,4.8281,0.868958,-0.490906,0.006836,0.062500
2026-04-22 14:15:19,0.4219,-9.6523,4.7109,0.869507,-0.489929,0.007080,0.061951
2026-04-22 14:15:19,0.1523,-9.0781,4.9414,0.871033,-0.487305,0.007813,0.061340
2026-04-22 14:15:19,-1.7227,-7.1289,5.7070,0.904663,-0.420166,0.017273,0.069031
2026-04-22 14:15:19,-1.7617,-7.0469,5.5938,0.907166,-0.414673,0.019104,0.068970
2026-04-22 14:15:19,-1.9531,-6.1289,6.1641,0.914917,-0.397217,0.022583,0.067993
2026-04-22 14:15:19,0.0781,-6.7031,7.2383,0.917419,-0.391541,0.022705,0.067017
2026-04-22 14:15:19,-1.2656,-7.6563,6.3984,0.922424,-0.379883,0.023682,0.064880
2026-04-22 14:15:19,0.3047,-4.8633,6.6250,0.936523,-0.342712,0.035156,0.064941
2026-04-22 14:15:19,0.8438,-6.7813,8.2734,0.945618,-0.313354,0.048218,0.072937
2026-04-22 14:15:19,-1.6836,-4.9805,8.8125,0.948425,-0.303101,0.052612,0.076294
2026-04-22 14:15:19,-1.6484,-5.4023,8.5000,0.954651,-0.278931,0.057678,0.086304
2026-04-22 14:15:19,-2.5664,-4.1758,8.1953,0.960510,-0.254395,0.061218,0.094910
2026-04-22 14:15:19,-1.9141,-2.2969,8.9258,0.982971,-0.138245,0.076111,0.094421
2026-04-22 14:15:19,-1.6836,-1.9141,9.1602,0.986084,-0.114807,0.074524,0.094238
2026-04-22 14:15:19,-1.8008,-1.6484,9.0039,0.988098,-0.098145,0.072449,0.093445
2026-04-22 14:15:20,-1.8398,-1.4570,8.7773,0.989807,-0.083008,0.070557,0.091980
2026-04-22 14:15:20,-0.9180,-1.6094,8.6563,0.989990,-0.081055,0.070435,0.091675
2026-04-22 14:15:20,-1.9531,0.3438,9.3086,0.992615,-0.047974,0.070740,0.085754
2026-04-22 14:15:20,-1.2656,0.1523,10.1523,0.993713,-0.028320,0.069885,0.082642
2026-04-22 14:15:20,-1.5703,1.4922,9.8828,0.994385,-0.010864,0.068604,0.080017
2026-04-22 14:15:20,-0.4961,0.3047,9.5000,0.994690,0.003540,0.065735,0.078979
2026-04-22 14:15:20,-0.2305,0.1523,9.0781,0.994751,0.016846,0.063538,0.078430
2026-04-22 14:15:20,-1.6094,2.5664,8.9609,0.986145,0.120972,0.106750,0.038757
2026-04-22 14:15:20,-1.5313,2.7969,9.1172,0.985046,0.125854,0.112183,0.035706
2026-04-22 14:15:20,-1.6094,2.7188,8.7773,0.983887,0.130493,0.117310,0.034973
2026-04-22 14:15:20,-2.3359,2.6055,8.9609,0.982422,0.135193,0.123352,0.036987
2026-04-22 14:15:20,-2.7188,2.1445,8.8867,0.980652,0.140625,0.131042,0.037476
2026-04-22 14:15:20,-4.2891,4.4063,9.7305,0.978271,0.148926,0.139709,0.035645
2026-04-22 14:15:20,-4.5977,4.2148,9.9648,0.976501,0.156006,0.143982,0.036621
2026-04-22 14:15:20,-3.6758,3.4102,8.9258,0.975586,0.161499,0.144043,0.037476
2026-04-22 14:15:20,-3.3320,4.2891,9.4258,0.974915,0.166321,0.142639,0.038696
2026-04-22 14:15:20,-2.9492,2.4141,8.0781,0.973938,0.173340,0.140808,0.039551
2026-04-22 14:15:20,-2.2617,2.3750,6.9336,0.962219,0.227722,0.141296,0.047791
2026-04-22 14:15:20,-2.3359,4.7891,7.9688,0.958374,0.242493,0.142517,0.049438
2026-04-22 14:15:20,-2.9102,6.8945,8.8867,0.955261,0.253174,0.144409,0.050415
2026-04-22 14:15:20,-3.2188,7.7383,9.4219,0.952759,0.261169,0.146545,0.050903
2026-04-22 14:15:20,-3.8320,9.0039,9.4609,0.952881,0.260620,0.146423,0.051086
2026-04-22 14:15:20,-4.1367,7.6602,9.0820,0.953430,0.259094,0.145630,0.051025
2026-04-22 14:15:20,-1.5313,3.9844,7.4336,0.956909,0.248840,0.141113,0.050110
2026-04-22 14:15:20,-1.7227,2.8359,6.7422,0.958191,0.244263,0.140503,0.049744
2026-04-22 14:15:20,-2.2617,2.4531,6.6250,0.958679,0.242310,0.140747,0.049683
2026-04-22 14:15:20,-2.2227,2.8359,6.8242,0.958008,0.244568,0.141113,0.049805
2026-04-22 14:15:20,-2.0703,4.5977,7.5859,0.953308,0.260559,0.143738,0.050903
2026-04-22 14:15:20,-1.9531,4.2148,7.4727,0.954407,0.257263,0.142761,0.050537
2026-04-22 14:15:20,-2.1445,3.8672,7.2031,0.954407,0.257263,0.142822,0.050537
2026-04-22 14:15:20,-2.3359,3.9453,7.1680,0.953979,0.258484,0.143250,0.050598
2026-04-22 14:15:20,-2.3750,5.1719,7.9727,0.953186,0.261169,0.143799,0.050659
2026-04-22 14:15:20,-2.7188,5.8242,8.1602,0.952209,0.264099,0.144897,0.050842
2026-04-22 14:15:20,-3.0273,5.8242,8.0430,0.951721,0.265381,0.145630,0.051025
2026-04-22 14:15:20,-3.1016,5.7852,7.9688,0.951721,0.265442,0.145630,0.051025
2026-04-22 14:15:20,-2.4883,5.2852,7.8125,0.952026,0.264648,0.144775,0.050964
2026-04-22 14:15:20,-2.3359,4.9805,7.6992,0.952454,0.263550,0.144165,0.050903
2026-04-22 14:15:20,-2.7578,5.4023,7.8125,0.951294,0.267029,0.145508,0.050720
2026-04-22 14:15:20,-2.5273,5.1328,7.6602,0.951111,0.267578,0.145447,0.050720
2026-04-22 14:15:20,-2.4883,4.9805,7.5898,0.951233,0.267395,0.145325,0.050659
2026-04-22 14:15:20,-2.4883,4.9414,7.5898,0.951233,0.267456,0.145325,0.050659
2026-04-22 14:15:20,-2.4531,4.9805,7.5898,0.951172,0.267578,0.145325,0.050659
2026-04-22 14:15:21,-2.5664,5.0938,7.6563,0.950867,0.268494,0.145691,0.050659
2026-04-22 14:15:21,-2.5664,5.1719,7.6602,0.950745,0.268738,0.145752,0.050659
2026-04-22 14:15:21,-2.5664,5.2500,7.6563,0.950439,0.269775,0.146057,0.050659
2026-04-22 14:15:21,-2.5664,5.2852,7.6992,0.950256,0.270325,0.146179,0.050659
2026-04-22 14:15:21,-2.6055,5.2852,7.6563,0.950134,0.270630,0.146301,0.050659
2026-04-22 14:15:21,-2.5664,5.2109,7.5898,0.949585,0.272522,0.146606,0.050720
2026-04-22 14:15:21,-2.6055,5.2852,7.5898,0.949341,0.273132,0.146790,0.050720
2026-04-22 14:15:21,-2.5664,5.2500,7.6289,0.949280,0.273438,0.146912,0.050720
2026-04-22 14:15:21,-2.6055,5.2500,7.5898,0.949158,0.273743,0.146973,0.050720
2026-04-22 14:15:21,-2.6055,5.2500,7.5898,0.949097,0.273987,0.146973,0.050720
2026-04-22 14:15:21,-2.5664,5.2500,7.5898,0.948975,0.274292,0.147034,0.050781
2026-04-22 14:15:21,-2.5273,5.2500,7.5859,0.948914,0.274597,0.147095,0.050781
2026-04-22 14:15:21,-2.5664,5.2500,7.5898,0.948792,0.274902,0.147156,0.050781
2026-04-22 14:15:21,-2.5664,5.2500,7.5898,0.948730,0.275146,0.147156,0.050781
2026-04-22 14:15:21,-2.5664,5.2500,7.5898,0.948608,0.275513,0.147217,0.050781
2026-04-22 14:15:21,-2.5664,5.3242,7.5859,0.947815,0.277954,0.147766,0.050842
2026-04-22 14:15:21,-2.5664,5.2852,7.5117,0.947571,0.278687,0.147949,0.050781
2026-04-22 14:15:21,-2.5664,5.3242,7.5508,0.947510,0.278931,0.148010,0.050842
2026-04-22 14:15:21,-2.5664,5.3242,7.5508,0.947388,0.279175,0.148071,0.050842
2026-04-22 14:15:21,-2.6055,5.3242,7.5078,0.947327,0.279419,0.148132,0.050842
2026-04-22 14:15:21,-2.5664,5.3242,7.5078,0.947205,0.279663,0.148193,0.050842
2026-04-22 14:15:21,-2.6055,5.3242,7.5078,0.947144,0.279846,0.148254,0.050903
2026-04-22 14:15:21,-2.6055,5.3242,7.5508,0.946777,0.280334,0.149780,0.050476
2026-04-22 14:15:21,-2.5664,5.3242,7.5078,0.946716,0.280579,0.149902,0.050415
2026-04-22 14:15:21,-2.6055,5.3633,7.4727,0.946655,0.280762,0.150024,0.050415
2026-04-22 14:15:21,-2.6055,5.3633,7.5117,0.945862,0.282776,0.151123,0.050110
2026-04-22 14:15:21,-2.6055,5.3633,7.5117,0.945801,0.283020,0.151245,0.050110
2026-04-22 14:15:21,-2.5664,5.3633,7.4297,0.945679,0.283264,0.151367,0.050049
2026-04-22 14:15:21,-2.6055,5.3633,7.5117,0.945618,0.283447,0.151550,0.050049
2026-04-22 14:15:21,-2.6055,5.3633,7.5117,0.945557,0.283630,0.151672,0.050049
2026-04-22 14:15:21,-2.6445,5.3633,7.4336,0.945435,0.283875,0.151794,0.050049
2026-04-22 14:15:21,-2.5664,5.4023,7.4727,0.945374,0.284119,0.151917,0.049988
2026-04-22 14:15:21,-2.6055,5.4023,7.4727,0.945251,0.284363,0.152039,0.049988
2026-04-22 14:15:21,-2.6055,5.4023,7.4727,0.945190,0.284546,0.152100,0.049988
2026-04-22 14:15:21,-2.6055,5.4023,7.4297,0.945129,0.284790,0.152222,0.049927
2026-04-22 14:15:21,-2.5664,5.4023,7.4727,0.944763,0.285706,0.152710,0.049866
2026-04-22 14:15:21,-2.6055,5.4023,7.4727,0.944580,0.286133,0.152893,0.049866
2026-04-22 14:15:21,-2.6055,5.4023,7.4727,0.944519,0.286377,0.153015,0.049927
2026-04-22 14:15:21,-2.6055,5.4414,7.4336,0.944397,0.286621,0.153137,0.049866
2026-04-22 14:15:22,-2.6055,5.4414,7.4688,0.944336,0.286804,0.153198,0.049866
2026-04-22 14:15:22,-2.6055,5.4414,7.4336,0.944275,0.287048,0.153320,0.049866
2026-04-22 14:15:22,-2.6055,5.4414,7.3945,0.944214,0.287170,0.153320,0.049866
2026-04-22 14:15:22,-2.6055,5.4414,7.4688,0.944153,0.287415,0.153442,0.049866
2026-04-22 14:15:22,-2.6055,5.4023,7.4727,0.944092,0.287537,0.153503,0.049866
2026-04-22 14:15:22,-2.6055,5.4414,7.3945,0.943970,0.287781,0.153564,0.049866
2026-04-22 14:15:22,-2.6055,5.4414,7.4336,0.943542,0.288940,0.154236,0.049805
2026-04-22 14:15:22,-2.5664,5.4414,7.4336,0.943420,0.289246,0.154297,0.049805
2026-04-22 14:15:22,-2.6055,5.4414,7.4336,0.943359,0.289429,0.154419,0.049744
2026-04-22 14:15:22,-2.6055,5.4766,7.3906,0.943298,0.289612,0.154602,0.049744
2026-04-22 14:15:22,-2.6055,5.4414,7.4336,0.943176,0.289795,0.154663,0.049683
2026-04-22 14:15:22,-2.6055,5.4766,7.4297,0.943115,0.289978,0.154724,0.049683
2026-04-22 14:15:22,-2.6055,5.4414,7.3945,0.943115,0.290039,0.154785,0.049683
2026-04-22 14:15:22,-2.6055,5.4414,7.4336,0.943054,0.290100,0.154846,0.049683
2026-04-22 14:15:22,-2.6445,5.4414,7.4297,0.942993,0.290344,0.154968,0.049683
2026-04-22 14:15:22,-2.6055,5.4766,7.4297,0.942932,0.290588,0.155029,0.049683
2026-04-22 14:15:22,-2.6055,5.4766,7.3555,0.942505,0.291626,0.155396,0.049622
2026-04-22 14:15:22,-2.6445,5.4414,7.3906,0.942383,0.291931,0.155518,0.049622
2026-04-22 14:15:22,-2.6055,5.4766,7.3906,0.942322,0.292053,0.155640,0.049622
2026-04-22 14:15:22,-2.6055,5.4766,7.3906,0.942261,0.292236,0.155701,0.049622
2026-04-22 14:15:22,-2.6055,5.4766,7.3906,0.942200,0.292419,0.155823,0.049622
2026-04-22 14:15:22,-2.6055,5.4766,7.4297,0.942139,0.292603,0.155884,0.049622
2026-04-22 14:15:22,-2.6445,5.4766,7.3945,0.942078,0.292725,0.156006,0.049622
2026-04-22 14:15:22,-2.6055,5.4766,7.3906,0.942017,0.292908,0.156067,0.049622
2026-04-22 14:15:22,-2.6445,5.4766,7.3945,0.941956,0.293030,0.156189,0.049622
2026-04-22 14:15:22,-2.6445,5.4766,7.3945,0.941895,0.293152,0.156311,0.049622
2026-04-22 14:15:22,-2.6055,5.5156,7.3945,0.941467,0.294189,0.156982,0.049500
2026-04-22 14:15:22,-2.6055,5.5156,7.3516,0.941467,0.294250,0.157043,0.049500
2026-04-22 14:15:22,-2.6055,5.5156,7.3945,0.941345,0.294495,0.157166,0.049500
2026-04-22 14:15:22,-2.6445,5.5156,7.3555,0.941284,0.294617,0.157227,0.049500
2026-04-22 14:15:22,-2.6445,5.4766,7.3516,0.941223,0.294739,0.157288,0.049500
2026-04-22 14:15:22,-2.6055,5.4766,7.3555,0.941223,0.294861,0.157349,0.049500
2026-04-22 14:15:22,-2.6055,5.5156,7.3945,0.941101,0.295044,0.157410,0.049500
2026-04-22 14:15:22,-2.6445,5.5156,7.3555,0.941101,0.295105,0.157471,0.049500
2026-04-22 14:15:22,-2.6445,5.5156,7.3906,0.941040,0.295227,0.157532,0.049500
2026-04-22 14:15:22,-2.6055,5.5156,7.3516,0.941040,0.295349,0.157532,0.049500
2026-04-22 14:15:22,-2.6055,5.5547,7.3516,0.940674,0.296204,0.157837,0.049500
2026-04-22 14:15:22,-2.6445,5.5156,7.3555,0.940613,0.296326,0.157898,0.049500
2026-04-22 14:15:22,-2.6055,5.5156,7.3516,0.940613,0.296448,0.157898,0.049500
2026-04-22 14:15:22,-2.6445,5.5156,7.3555,0.940552,0.296570,0.157959,0.049500
2026-04-22 14:15:22,-2.6445,5.5547,7.3555,0.940491,0.296692,0.158020,0.049500
2026-04-22 14:15:22,-2.6055,5.5547,7.3516,0.940491,0.296814,0.158020,0.049500
2026-04-22 14:15:22,-2.6445,5.5156,7.3164,0.940430,0.296875,0.158081,0.049500
2026-04-22 14:15:23,-2.6445,5.5547,7.3555,0.940369,0.296997,0.158142,0.049500
2026-04-22 14:15:23,-2.6445,5.5547,7.3555,0.940369,0.296997,0.158203,0.049500
2026-04-22 14:15:23,-2.6055,5.5547,7.3516,0.940308,0.297180,0.158142,0.049438
2026-04-22 14:15:23,-2.6445,5.5547,7.3164,0.940002,0.298035,0.158569,0.049500
2026-04-22 14:15:23,-2.6055,5.5547,7.3125,0.939941,0.298157,0.158691,0.049438
2026-04-22 14:15:23,-2.6445,5.5547,7.3164,0.939880,0.298218,0.158691,0.049438
2026-04-22 14:15:23,-2.6445,5.5156,7.3164,0.939880,0.298340,0.158752,0.049438
2026-04-22 14:15:23,-2.6055,5.5547,7.3125,0.939819,0.298401,0.158875,0.049438
2026-04-22 14:15:23,-2.6445,5.5547,7.3164,0.939758,0.298523,0.158936,0.049438
2026-04-22 14:15:23,-2.6445,5.5547,7.3164,0.939758,0.298584,0.159058,0.049438
2026-04-22 14:15:23,-2.6055,5.5547,7.3125,0.939697,0.298645,0.159058,0.049438
2026-04-22 14:15:23,-2.6445,5.5547,7.3164,0.939636,0.298828,0.159119,0.049500
2026-04-22 14:15:23,-2.6055,5.5547,7.3125,0.939575,0.298950,0.159180,0.049500
2026-04-22 14:15:23,-2.6445,5.5547,7.3164,0.939392,0.299500,0.159485,0.049438
2026-04-22 14:15:23,-2.6055,5.5547,7.3125,0.939331,0.299622,0.159485,0.049438
2026-04-22 14:15:23,-2.6445,5.5547,7.3164,0.939331,0.299683,0.159546,0.049438
2026-04-22 14:15:23,-2.6445,5.5547,7.2734,0.939270,0.299683,0.159607,0.049438
2026-04-22 14:15:23,-2.6055,5.5547,7.3125,0.939270,0.299744,0.159607,0.049377
2026-04-22 14:15:23,-2.6445,5.5547,7.3164,0.939209,0.299805,0.159668,0.049377
2026-04-22 14:15:23,-2.6445,5.5938,7.3125,0.939209,0.299927,0.159729,0.049377
2026-04-22 14:15:23,-2.6445,5.5547,7.3164,0.939148,0.299988,0.159790,0.049377
2026-04-22 14:15:23,-2.6055,5.5938,7.3164,0.939148,0.300049,0.159790,0.049377
2026-04-22 14:15:23,-2.6445,5.5547,7.3164,0.939148,0.300110,0.159851,0.049377
2026-04-22 14:15:23,-2.6055,5.5938,7.3164,0.938904,0.300659,0.160095,0.049316
2026-04-22 14:15:23,-2.6445,5.5547,7.3164,0.938904,0.300720,0.160156,0.049316
2026-04-22 14:15:23,-2.6445,5.5938,7.2773,0.938843,0.300842,0.160156,0.049377
2026-04-22 14:15:23,-2.6055,5.5938,7.2734,0.938782,0.300964,0.160156,0.049377
2026-04-22 14:15:23,-2.6445,5.5938,7.3125,0.938782,0.301025,0.160156,0.049377
2026-04-22 14:15:23,-2.6445,5.5938,7.3125,0.938721,0.301086,0.160217,0.049377
2026-04-22 14:15:23,-2.6445,5.5938,7.2773,0.938721,0.301086,0.160217,0.049377
2026-04-22 14:15:23,-2.6055,5.5938,7.3164,0.938721,0.301147,0.160278,0.049438
2026-04-22 14:15:23,-2.6445,5.5938,7.3125,0.938660,0.301208,0.160278,0.049377
2026-04-22 14:15:23,-2.6445,5.5938,7.2773,0.938660,0.301331,0.160339,0.049377
2026-04-22 14:15:23,-2.6445,5.5938,7.3516,0.938477,0.301880,0.160339,0.049377
2026-04-22 14:15:23,-2.6445,5.5938,7.2773,0.938477,0.301880,0.160339,0.049377
2026-04-22 14:15:23,-2.6445,5.6328,7.3125,0.938416,0.302002,0.160400,0.049438
2026-04-22 14:15:23,-2.6445,5.6328,7.2773,0.938416,0.302063,0.160461,0.049438
2026-04-22 14:15:23,-2.6445,5.5938,7.3125,0.938354,0.302124,0.160461,0.049438
2026-04-22 14:15:23,-2.6445,5.5938,7.2773,0.938354,0.302185,0.160522,0.049500
2026-04-22 14:15:23,-2.6445,5.5938,7.3125,0.938293,0.302246,0.160583,0.049438
2026-04-22 14:15:23,-2.6445,5.5938,7.2773,0.938293,0.302307,0.160645,0.049438
2026-04-22 14:15:23,-2.6445,5.5938,7.2773,0.938232,0.302368,0.160706,0.049438
2026-04-22 14:15:23,-2.6445,5.5938,7.3125,0.938232,0.302429,0.160706,0.049377
2026-04-22 14:15:24,-2.6445,5.5938,7.2773,0.938049,0.302856,0.160950,0.049255
2026-04-22 14:15:24,-2.6445,5.5938,7.2773,0.938049,0.302917,0.161011,0.049316
2026-04-22 14:15:24,-2.6055,5.6328,7.2734,0.937988,0.302979,0.161011,0.049377
2026-04-22 14:15:24,-2.6445,5.5938,7.2773,0.937988,0.303040,0.161011,0.049316
2026-04-22 14:15:24,-2.6445,5.5938,7.2773,0.937927,0.303101,0.161011,0.049316
2026-04-22 14:15:24,-2.6445,5.5938,7.2773,0.937927,0.303162,0.161072,0.049316
2026-04-22 14:15:24,-2.6445,5.5938,7.2773,0.937927,0.303284,0.161072,0.049255
2026-04-22 14:15:24,-2.6445,5.5938,7.2773,0.937866,0.303406,0.161133,0.049255
2026-04-22 14:15:24,-2.6445,5.5938,7.2773,0.937805,0.303467,0.161133,0.049255
2026-04-22 14:15:24,-2.6445,5.5938,7.2773,0.937805,0.303467,0.161133,0.049255
2026-04-22 14:15:24,-2.6797,5.6328,7.2734,0.937622,0.303955,0.161377,0.049255
2026-04-22 14:15:24,-2.6445,5.6328,7.2773,0.937622,0.304016,0.161377,0.049255
2026-04-22 14:15:24,-2.6445,5.6328,7.2773,0.937561,0.304077,0.161438,0.049255
2026-04-22 14:15:24,-2.6445,5.6328,7.2773,0.937561,0.304077,0.161499,0.049255
2026-04-22 14:15:24,-2.6445,5.6328,7.2383,0.937561,0.304138,0.161560,0.049255
2026-04-22 14:15:24,-2.6445,5.6328,7.2773,0.937500,0.304138,0.161621,0.049255
2026-04-22 14:15:24,-2.6445,5.6328,7.2773,0.937500,0.304260,0.161621,0.049255
2026-04-22 14:15:24,-2.6445,5.6328,7.2383,0.937439,0.304260,0.161682,0.049316
2026-04-22 14:15:24,-2.6445,5.6328,7.2773,0.937439,0.304321,0.161682,0.049255
2026-04-22 14:15:24,-2.6445,5.6328,7.2773,0.937439,0.304321,0.161682,0.049255
2026-04-22 14:15:24,-2.6797,5.6328,7.2734,0.937317,0.304688,0.161926,0.049194
2026-04-22 14:15:24,-2.6445,5.6328,7.2383,0.937317,0.304688,0.161926,0.049194
2026-04-22 14:15:24,-2.6445,5.6328,7.2773,0.937256,0.304749,0.161926,0.049194
2026-04-22 14:15:24,-2.6445,5.6328,7.2773,0.937256,0.304871,0.161926,0.049133
2026-04-22 14:15:24,-2.6445,5.6328,7.2383,0.937256,0.304871,0.161926,0.049133
2026-04-22 14:15:24,-2.6797,5.6328,7.2734,0.937195,0.304932,0.161987,0.049133
2026-04-22 14:15:24,-2.6445,5.6328,7.2773,0.937195,0.304993,0.161987,0.049133
2026-04-22 14:15:24,-2.6797,5.6328,7.2734,0.937134,0.305054,0.162048,0.049133
2026-04-22 14:15:24,-2.6445,5.6328,7.2773,0.937134,0.305115,0.162048,0.049133
2026-04-22 14:15:24,-2.6445,5.6680,7.2383,0.937134,0.305176,0.162109,0.049072
2026-04-22 14:15:24,-2.6797,5.6328,7.2344,0.937012,0.305359,0.162292,0.049072
2026-04-22 14:15:24,-2.6445,5.6328,7.2383,0.937012,0.305420,0.162354,0.049011
2026-04-22 14:15:24,-2.6445,5.6328,7.2383,0.936951,0.305420,0.162476,0.049011
2026-04-22 14:15:24,-2.6445,5.6328,7.2773,0.936951,0.305481,0.162476,0.049011
2026-04-22 14:15:24,-2.6445,5.6680,7.2031,0.936951,0.305542,0.162476,0.049072
2026-04-22 14:15:24,-2.6445,5.6328,7.2383,0.936890,0.305603,0.162537,0.049072
2026-04-22 14:15:24,-2.6445,5.6328,7.2383,0.936890,0.305603,0.162598,0.049011
2026-04-22 14:15:24,-2.6797,5.6328,7.2344,0.936890,0.305664,0.162598,0.049072
2026-04-22 14:15:24,-2.6797,5.6328,7.2344,0.936890,0.305664,0.162598,0.049011
2026-04-22 14:15:24,-2.6445,5.6328,7.2383,0.936829,0.305725,0.162659,0.049011
2026-04-22 14:15:25,-2.6445,5.6328,7.2383,0.936768,0.305969,0.162659,0.049133
2026-04-22 14:15:25,-2.6445,5.6328,7.2383,0.936768,0.305969,0.162720,0.049072
2026-04-22 14:15:25,-2.6445,5.6680,7.2383,0.936707,0.306030,0.162781,0.049072
2026-04-22 14:15:25,-2.6797,5.6328,7.2344,0.936707,0.306091,0.162842,0.049072
2026-04-22 14:15:25,-2.6797,5.6328,7.2344,0.936646,0.306152,0.162903,0.049072
2026-04-22 14:15:25,-2.6445,5.6328,7.2383,0.936646,0.306152,0.162903,0.049072
2026-04-22 14:15:25,-2.6445,5.6680,7.2383,0.936646,0.306152,0.162903,0.049072
2026-04-22 14:15:25,-2.6445,5.6328,7.2773,0.936646,0.306152,0.162903,0.049072
2026-04-22 14:15:25,-2.6445,5.6328,7.2383,0.936646,0.306213,0.162903,0.049072
2026-04-22 14:15:25,-2.6445,5.6328,7.2383,0.936646,0.306213,0.162903,0.049011
2026-04-22 14:15:25,-2.6445,5.6328,7.2773,0.936523,0.306458,0.163025,0.048950
2026-04-22 14:15:25,-2.6445,5.6680,7.2383,0.936523,0.306580,0.163025,0.048950
2026-04-22 14:15:25,-2.6445,5.6680,7.2031,0.936523,0.306580,0.163025,0.048950
2026-04-22 14:15:25,-2.6445,5.6328,7.2383,0.936462,0.306580,0.163086,0.048950
2026-04-22 14:15:25,-2.6797,5.6680,7.2734,0.936462,0.306641,0.163086,0.048950
2026-04-22 14:15:25,-2.6445,5.6680,7.2773,0.936462,0.306641,0.163086,0.048950
2026-04-22 14:15:25,-2.6445,5.6680,7.2383,0.936462,0.306702,0.163086,0.048950
2026-04-22 14:15:25,-2.6797,5.6328,7.2344,0.936462,0.306702,0.163086,0.048950
2026-04-22 14:15:25,-2.6445,5.6680,7.2383,0.936401,0.306763,0.163147,0.048950
2026-04-22 14:15:25,-2.6797,5.6680,7.2344,0.936401,0.306824,0.163147,0.048950
2026-04-22 14:15:25,-2.6445,5.6680,7.2383,0.936340,0.307007,0.163269,0.048950
2026-04-22 14:15:25,-2.6445,5.6680,7.2383,0.936279,0.307068,0.163269,0.049011
2026-04-22 14:15:25,-2.6445,5.6328,7.2773,0.936279,0.307068,0.163269,0.049011
2026-04-22 14:15:25,-2.6445,5.6328,7.2383,0.936279,0.307129,0.163269,0.049011
2026-04-22 14:15:25,-2.6445,5.6680,7.2383,0.936279,0.307129,0.163330,0.049011
2026-04-22 14:15:25,-2.6445,5.6680,7.2383,0.936218,0.307190,0.163391,0.049011
2026-04-22 14:15:25,-2.6797,5.6680,7.2070,0.936218,0.307190,0.163391,0.048950
2026-04-22 14:15:25,-2.6797,5.6680,7.2344,0.936218,0.307190,0.163452,0.048950
2026-04-22 14:15:25,-2.6445,5.6680,7.2383,0.936218,0.307251,0.163452,0.049011
2026-04-22 14:15:25,-2.6797,5.7070,7.2344,0.936218,0.307251,0.163452,0.049011
2026-04-22 14:15:25,-2.6797,5.6680,7.2344,0.936157,0.307373,0.163574,0.048950
2026-04-22 14:15:25,-2.6797,5.6680,7.2344,0.936157,0.307373,0.163635,0.048950
2026-04-22 14:15:25,-2.6797,5.6328,7.2344,0.936096,0.307434,0.163635,0.048950
2026-04-22 14:15:25,-2.6797,5.6680,7.2344,0.936096,0.307434,0.163696,0.048950
2026-04-22 14:15:25,-2.6445,5.6680,7.2031,0.936096,0.307434,0.163635,0.048889
2026-04-22 14:15:25,-2.6445,5.6680,7.2383,0.936096,0.307495,0.163635,0.048889
2026-04-22 14:15:25,-2.6797,5.6680,7.2344,0.936096,0.307495,0.163696,0.048950
2026-04-22 14:15:25,-2.6797,5.6680,7.2344,0.936096,0.307495,0.163696,0.048950
2026-04-22 14:15:25,-2.6797,5.6680,7.2070,0.936096,0.307495,0.163696,0.048950
2026-04-22 14:15:25,-2.6445,5.6680,7.2383,0.936096,0.307556,0.163696,0.048889
2026-04-22 14:15:26,-2.6445,5.6680,7.2383,0.935913,0.307861,0.163818,0.048950
2026-04-22 14:15:26,-2.6445,5.6680,7.2383,0.935913,0.307922,0.163818,0.048950
2026-04-22 14:15:26,-2.6797,5.6680,7.2070,0.935913,0.307922,0.163818,0.048889
2026-04-22 14:15:26,-2.6445,5.6680,7.2383,0.935913,0.307861,0.163879,0.048889
2026-04-22 14:15:26,-2.6445,5.6680,7.2383,0.935913,0.307861,0.163879,0.048889
2026-04-22 14:15:26,-2.6797,5.6680,7.2070,0.935913,0.307861,0.163940,0.048889
2026-04-22 14:15:26,-2.6797,5.6680,7.2070,0.935913,0.307922,0.163879,0.048889
2026-04-22 14:15:26,-2.6445,5.6680,7.2383,0.935913,0.307983,0.163879,0.048889
2026-04-22 14:15:26,-2.6445,5.6680,7.2031,0.935913,0.307983,0.163879,0.048889
2026-04-22 14:15:26,-2.6797,5.6680,7.2734,0.935913,0.307983,0.163818,0.048889
2026-04-22 14:15:26,-2.6445,5.6680,7.2031,0.935852,0.308166,0.163940,0.048828
2026-04-22 14:15:26,-2.6445,5.6680,7.2383,0.935852,0.308166,0.163940,0.048828
2026-04-22 14:15:26,-2.6445,5.6680,7.2031,0.935791,0.308228,0.164001,0.048767
2026-04-22 14:15:26,-2.6797,5.6680,7.2070,0.935791,0.308289,0.164001,0.048767
2026-04-22 14:15:26,-2.6797,5.6680,7.2070,0.935791,0.308289,0.164001,0.048767
2026-04-22 14:15:26,-2.6445,5.6680,7.2031,0.935791,0.308289,0.164001,0.048767
2026-04-22 14:15:26,-2.6445,5.6680,7.2383,0.935730,0.308350,0.163940,0.048767
2026-04-22 14:15:26,-2.6445,5.6680,7.2383,0.935730,0.308411,0.163940,0.048767
2026-04-22 14:15:26,-2.6797,5.6680,7.2070,0.935730,0.308472,0.163940,0.048706
2026-04-22 14:15:26,-2.6445,5.6680,7.2031,0.935730,0.308533,0.163940,0.048706
2026-04-22 14:15:26,-2.6445,5.6680,7.2383,0.935669,0.308716,0.163940,0.048767
2026-04-22 14:15:26,-2.6445,5.6680,7.2031,0.935669,0.308716,0.163940,0.048767
2026-04-22 14:15:26,-2.6445,5.6680,7.2031,0.935608,0.308716,0.164001,0.048767
2026-04-22 14:15:26,-2.6445,5.6680,7.2383,0.935608,0.308777,0.164001,0.048767
2026-04-22 14:15:26,-2.6445,5.7070,7.2383,0.935608,0.308838,0.164001,0.048767
2026-04-22 14:15:26,-2.6445,5.6680,7.2383,0.935608,0.308838,0.164001,0.048828
2026-04-22 14:15:26,-2.6797,5.6680,7.2344,0.935608,0.308838,0.164001,0.048828
2026-04-22 14:15:26,-2.6797,5.6680,7.2344,0.935608,0.308838,0.164001,0.048828
2026-04-22 14:15:26,-2.6797,5.6680,7.2070,0.935608,0.308838,0.164001,0.048828
2026-04-22 14:15:26,-2.6445,5.6680,7.2031,0.935608,0.308838,0.164062,0.048828
2026-04-22 14:15:26,-2.6797,5.6680,7.2070,0.935486,0.309021,0.164124,0.048889
2026-04-22 14:15:26,-2.6797,5.6680,7.2344,0.935486,0.309082,0.164124,0.048889
2026-04-22 14:15:26,-2.6445,5.7070,7.2031,0.935486,0.309082,0.164062,0.048950
2026-04-22 14:15:26,-2.6445,5.6680,7.2031,0.935486,0.309082,0.164062,0.048950
2026-04-22 14:15:26,-2.6445,5.7070,7.2031,0.935486,0.309082,0.164124,0.048889
2026-04-22 14:15:26,-2.6797,5.7070,7.2070,0.935486,0.309082,0.164124,0.048889
2026-04-22 14:15:26,-2.7188,5.6680,7.2031,0.935486,0.309082,0.164185,0.048889
2026-04-22 14:15:26,-2.6797,5.7070,7.1680,0.935486,0.309082,0.164185,0.048889
2026-04-22 14:15:26,-2.6445,5.7070,7.2031,0.935486,0.309082,0.164185,0.048889
2026-04-22 14:15:26,-2.6445,5.7070,7.2031,0.935486,0.309082,0.164185,0.048950
2026-04-22 14:15:27,-2.6445,5.7070,7.2031,0.935425,0.309143,0.164246,0.049011
2026-04-22 14:15:27,-2.6797,5.7070,7.2070,0.935425,0.309204,0.164307,0.049072
2026-04-22 14:15:27,-2.6797,5.7070,7.2344,0.935425,0.309204,0.164307,0.049133
2026-04-22 14:15:27,-2.6797,5.6680,7.2344,0.935425,0.309204,0.164307,0.049133
2026-04-22 14:15:27,-2.6445,5.6680,7.1641,0.935425,0.309204,0.164307,0.049133
2026-04-22 14:15:27,-2.6797,5.6680,7.1680,0.935364,0.309265,0.164307,0.049133
2026-04-22 14:15:27,-2.6797,5.7070,7.2070,0.935364,0.309326,0.164368,0.049133
2026-04-22 14:15:27,-2.6797,5.7070,7.2344,0.935303,0.309387,0.164368,0.049133
2026-04-22 14:15:27,-2.6797,5.6680,7.2070,0.935303,0.309387,0.164368,0.049072
2026-04-22 14:15:27,-2.6797,5.6680,7.2070,0.935303,0.309448,0.164368,0.049133
2026-04-22 14:15:27,-2.6797,5.6680,7.2070,0.935242,0.309509,0.164551,0.049072
2026-04-22 14:15:27,-2.6797,5.6680,7.2070,0.935242,0.309509,0.164551,0.049072
2026-04-22 14:15:27,-2.6797,5.7070,7.2070,0.935242,0.309509,0.164551,0.049072
2026-04-22 14:15:27,-2.6445,5.7070,7.2031,0.935242,0.309570,0.164551,0.049072
2026-04-22 14:15:27,-2.6445,5.7070,7.2031,0.935242,0.309570,0.164612,0.049072
2026-04-22 14:15:27,-2.6797,5.6680,7.2070,0.935242,0.309570,0.164612,0.049072
2026-04-22 14:15:27,-2.6797,5.7070,7.2070,0.935242,0.309570,0.164612,0.049072
2026-04-22 14:15:27,-2.6797,5.7070,7.2070,0.935242,0.309570,0.164673,0.049072
2026-04-22 14:15:27,-2.6445,5.7070,7.2031,0.935181,0.309631,0.164673,0.049072
2026-04-22 14:15:27,-2.6797,5.7070,7.2070,0.935181,0.309631,0.164734,0.049072
2026-04-22 14:15:27,-2.6797,5.7070,7.2070,0.935120,0.309875,0.164734,0.049072
2026-04-22 14:15:27,-2.6797,5.6680,7.2344,0.935120,0.309875,0.164795,0.049072
2026-04-22 14:15:27,-2.6445,5.7070,7.2031,0.935120,0.309814,0.164795,0.049072
2026-04-22 14:15:27,-2.6445,5.7070,7.2031,0.935120,0.309814,0.164795,0.049011
2026-04-22 14:15:27,-2.6797,5.7070,7.2070,0.935120,0.309875,0.164795,0.049011
2026-04-22 14:15:27,-2.6797,5.6680,7.2070,0.935120,0.309875,0.164795,0.048950
2026-04-22 14:15:27,-2.6797,5.7070,7.2070,0.935120,0.309875,0.164795,0.048950
2026-04-22 14:15:27,-2.6797,5.6680,7.2070,0.935120,0.309875,0.164795,0.048950
2026-04-22 14:15:27,-2.7188,5.7070,7.2383,0.935120,0.309814,0.164856,0.049011
2026-04-22 14:15:27,-2.6445,5.7070,7.2031,0.935120,0.309814,0.164917,0.049011
2026-04-22 14:15:27,-2.6797,5.7070,7.1680,0.935059,0.309937,0.164917,0.049011
2026-04-22 14:15:27,-2.6445,5.7070,7.2031,0.934998,0.310059,0.164917,0.049133
2026-04-22 14:15:27,-2.6445,5.7070,7.2031,0.934998,0.310059,0.164917,0.049072
2026-04-22 14:15:27,-2.6797,5.7070,7.2070,0.934998,0.310059,0.164917,0.049133
2026-04-22 14:15:27,-2.6797,5.7070,7.2070,0.934998,0.310120,0.164978,0.049133
2026-04-22 14:15:27,-2.7188,5.7070,7.2031,0.934998,0.310059,0.165039,0.049133
2026-04-22 14:15:27,-2.6445,5.7461,7.2031,0.934998,0.310059,0.165039,0.049133
2026-04-22 14:15:27,-2.6797,5.7070,7.2070,0.934998,0.310059,0.165039,0.049133
2026-04-22 14:15:27,-2.6797,5.7070,7.2070,0.934998,0.310059,0.165100,0.049133
2026-04-22 14:15:28,-2.6797,5.7070,7.2070,0.934998,0.310059,0.165100,0.049133
2026-04-22 14:15:28,-2.6797,5.7070,7.2070,0.934937,0.310181,0.165100,0.049255
2026-04-22 14:15:28,-2.6797,5.7070,7.2344,0.934937,0.310181,0.165100,0.049255
2026-04-22 14:15:28,-2.6797,5.7070,7.2070,0.934937,0.310242,0.165100,0.049194
2026-04-22 14:15:28,-2.6445,5.7070,7.2031,0.934875,0.310303,0.165161,0.049194
2026-04-22 14:15:28,-2.6445,5.7070,7.2031,0.934875,0.310303,0.165161,0.049194
2026-04-22 14:15:28,-2.6445,5.7070,7.2031,0.934875,0.310303,0.165161,0.049194
2026-04-22 14:15:28,-2.6797,5.7070,7.2070,0.934875,0.310303,0.165222,0.049255
2026-04-22 14:15:28,-2.6797,5.7070,7.2070,0.934875,0.310303,0.165222,0.049255
2026-04-22 14:15:28,-2.7188,5.7070,7.2031,0.934875,0.310303,0.165222,0.049255
2026-04-22 14:15:28,-2.6797,5.7070,7.2070,0.934875,0.310303,0.165222,0.049255
2026-04-22 14:15:28,-2.6797,5.7070,7.2070,0.934875,0.310303,0.165222,0.049255
2026-04-22 14:15:28,-2.6797,5.7461,7.2070,0.934875,0.310303,0.165222,0.049255
2026-04-22 14:15:28,-2.6797,5.7070,7.2070,0.934875,0.310303,0.165222,0.049255
2026-04-22 14:15:28,-2.7188,5.7070,7.1641,0.934875,0.310303,0.165222,0.049255
2026-04-22 14:15:28,-2.6445,5.6680,7.2031,0.934875,0.310303,0.165222,0.049255
2026-04-22 14:15:28,-2.6445,5.7070,7.1641,0.934875,0.310303,0.165222,0.049255
2026-04-22 14:15:28,-2.6797,5.7070,7.2070,0.934875,0.310303,0.165222,0.049255
2026-04-22 14:15:28,-2.6797,5.7461,7.2070,0.934875,0.310303,0.165222,0.049255
2026-04-22 14:15:28,-2.6797,5.7461,7.2070,0.934875,0.310303,0.165222,0.049255
2026-04-22 14:15:28,-2.6797,5.7070,7.1680,0.934875,0.310303,0.165222,0.049255
2026-04-22 14:15:28,-2.6445,5.7070,7.2031,0.934875,0.310364,0.165222,0.049255
2026-04-22 14:15:28,-2.6445,5.7070,7.1641,0.934875,0.310364,0.165222,0.049255
2026-04-22 14:15:28,-2.6445,5.7070,7.1641,0.934875,0.310364,0.165222,0.049255
2026-04-22 14:15:28,-2.6797,5.7070,7.2070,0.934875,0.310364,0.165222,0.049255
2026-04-22 14:15:28,-2.6445,5.7070,7.2031,0.934875,0.310364,0.165222,0.049255
2026-04-22 14:15:28,-2.6797,5.7070,7.2070,0.934875,0.310364,0.165222,0.049255
2026-04-22 14:15:28,-2.6797,5.7070,7.2070,0.934875,0.310364,0.165222,0.049255
2026-04-22 14:15:28,-2.6797,5.7070,7.2070,0.934875,0.310364,0.165222,0.049255
2026-04-22 14:15:28,-2.6445,5.7070,7.2031,0.934875,0.310364,0.165222,0.049255
2026-04-22 14:15:28,-2.6797,5.7070,7.1680,0.934875,0.310364,0.165222,0.049255
2026-04-22 14:15:28,-2.6445,5.7070,7.2031,0.934875,0.310364,0.165222,0.049255
2026-04-22 14:15:28,-2.6797,5.7070,7.2070,0.934814,0.310364,0.165222,0.049255
2026-04-22 14:15:28,-2.6445,5.7461,7.1641,0.934814,0.310364,0.165222,0.049255
2026-04-22 14:15:28,-2.6445,5.7461,7.2031,0.934814,0.310364,0.165222,0.049255
2026-04-22 14:15:28,-2.6797,5.7070,7.2070,0.934814,0.310425,0.165222,0.049255
2026-04-22 14:15:28,-2.6797,5.7070,7.1680,0.934814,0.310425,0.165222,0.049255
2026-04-22 14:15:28,-2.6445,5.7461,7.2031,0.934814,0.310425,0.165222,0.049255
2026-04-22 14:15:28,-2.7188,5.7070,7.1641,0.934814,0.310425,0.165222,0.049255
2026-04-22 14:15:28,-2.7188,5.7070,7.2031,0.934814,0.310425,0.165222,0.049255
2026-04-22 14:15:28,-2.6797,5.7070,7.2070,0.934814,0.310425,0.165222,0.049255
2026-04-22 14:15:29,-2.6797,5.7070,7.1680,0.934814,0.310425,0.165283,0.049255
2026-04-22 14:15:29,-2.6797,5.7070,7.1680,0.934814,0.310425,0.165283,0.049255
2026-04-22 14:15:29,-2.6445,5.7070,7.2031,0.934814,0.310425,0.165283,0.049255
2026-04-22 14:15:29,-2.6797,5.7461,7.2070,0.934814,0.310425,0.165283,0.049255
2026-04-22 14:15:29,-2.6797,5.7461,7.2070,0.934814,0.310425,0.165283,0.049194
2026-04-22 14:15:29,-2.6445,5.7070,7.2031,0.934814,0.310425,0.165283,0.049194
2026-04-22 14:15:29,-2.6797,5.7461,7.2070,0.934814,0.310425,0.165283,0.049194
2026-04-22 14:15:29,-2.6797,5.7070,7.2070,0.934814,0.310425,0.165283,0.049194
2026-04-22 14:15:29,-2.6797,5.7070,7.1680,0.934814,0.310425,0.165283,0.049194
2026-04-22 14:15:29,-2.6797,5.7070,7.2070,0.934814,0.310425,0.165344,0.049194
2026-04-22 14:15:29,-2.6797,5.7461,7.2070,0.934814,0.310486,0.165344,0.049194
2026-04-22 14:15:29,-2.6797,5.6680,7.2070,0.934814,0.310486,0.165344,0.049194
2026-04-22 14:15:29,-2.6797,5.7070,7.2070,0.934814,0.310486,0.165344,0.049194
2026-04-22 14:15:29,-2.6797,5.7070,7.1680,0.934814,0.310486,0.165344,0.049194
2026-04-22 14:15:29,-2.6797,5.7461,7.2070,0.934814,0.310486,0.165344,0.049194
2026-04-22 14:15:29,-2.6797,5.7070,7.1680,0.934753,0.310486,0.165344,0.049194
2026-04-22 14:15:29,-2.6797,5.7461,7.1680,0.934753,0.310486,0.165344,0.049194
2026-04-22 14:15:29,-2.6445,5.7070,7.2031,0.934753,0.310486,0.165344,0.049194
2026-04-22 14:15:29,-2.6797,5.7070,7.2070,0.934753,0.310547,0.165344,0.049194
2026-04-22 14:15:29,-2.6797,5.7070,7.1680,0.934753,0.310547,0.165405,0.049194
2026-04-22 14:15:29,-2.6797,5.7461,7.2070,0.934753,0.310547,0.165466,0.049194
2026-04-22 14:15:29,-2.6797,5.7070,7.2070,0.934753,0.310608,0.165466,0.049194
2026-04-22 14:15:29,-2.6797,5.7461,7.1680,0.934753,0.310608,0.165466,0.049194
2026-04-22 14:15:29,-2.6797,5.7070,7.2070,0.934753,0.310608,0.165466,0.049194
2026-04-22 14:15:29,-2.6797,5.7070,7.2070,0.934753,0.310608,0.165466,0.049194
2026-04-22 14:15:29,-2.6797,5.7070,7.1680,0.934753,0.310608,0.165466,0.049194
2026-04-22 14:15:29,-2.6445,5.7461,7.1641,0.934753,0.310608,0.165527,0.049194
2026-04-22 14:15:29,-2.6797,5.7461,7.2070,0.934692,0.310608,0.165527,0.049194
2026-04-22 14:15:29,-2.7188,5.7070,7.2031,0.934692,0.310608,0.165527,0.049194
2026-04-22 14:15:29,-2.7188,5.7070,7.1641,0.934692,0.310608,0.165527,0.049194
2026-04-22 14:15:29,-2.6797,5.7070,7.1680,0.934692,0.310669,0.165588,0.049194
2026-04-22 14:15:29,-2.6797,5.7070,7.2070,0.934692,0.310669,0.165588,0.049194
2026-04-22 14:15:29,-2.6797,5.7070,7.2070,0.934692,0.310669,0.165588,0.049194
2026-04-22 14:15:29,-2.6797,5.7070,7.2070,0.934692,0.310669,0.165588,0.049194
2026-04-22 14:15:29,-2.6797,5.7461,7.1680,0.934692,0.310669,0.165588,0.049194
2026-04-22 14:15:29,-2.6797,5.7461,7.1680,0.934692,0.310730,0.165588,0.049194
2026-04-22 14:15:29,-2.6797,5.7461,7.2070,0.934692,0.310730,0.165588,0.049194
2026-04-22 14:15:29,-2.6445,5.7070,7.2031,0.934692,0.310730,0.165588,0.049194
2026-04-22 14:15:29,-2.6797,5.7070,7.1680,0.934692,0.310730,0.165588,0.049194
2026-04-22 14:15:29,-2.6797,5.7070,7.2070,0.934692,0.310730,0.165588,0.049194
2026-04-22 14:15:30,-2.6445,5.7461,7.1641,0.934631,0.310791,0.165649,0.049194
2026-04-22 14:15:30,-2.6797,5.7070,7.1680,0.934631,0.310791,0.165588,0.049194
2026-04-22 14:15:30,-2.6797,5.7461,7.1680,0.934631,0.310791,0.165588,0.049194
2026-04-22 14:15:30,-2.6797,5.7070,7.2070,0.934631,0.310852,0.165588,0.049194
2026-04-22 14:15:30,-2.6797,5.7461,7.1680,0.934631,0.310852,0.165588,0.049194
2026-04-22 14:15:30,-2.6445,5.7461,7.1641,0.934631,0.310852,0.165588,0.049194
2026-04-22 14:15:30,-2.6797,5.7461,7.2070,0.934631,0.310852,0.165588,0.049194
2026-04-22 14:15:30,-2.6445,5.7461,7.2031,0.934631,0.310791,0.165588,0.049194
2026-04-22 14:15:30,-2.6797,5.7461,7.2070,0.934631,0.310791,0.165588,0.049194
2026-04-22 14:15:30,-2.6797,5.7070,7.2070,0.934631,0.310852,0.165588,0.049194
2026-04-22 14:15:30,-2.6797,5.7070,7.1680,0.934692,0.310730,0.165527,0.049194
2026-04-22 14:15:30,-2.6797,5.7461,7.2070,0.934692,0.310730,0.165527,0.049194
2026-04-22 14:15:30,-2.6797,5.7461,7.2070,0.934692,0.310791,0.165527,0.049194
2026-04-22 14:15:30,-2.6797,5.7461,7.2070,0.934692,0.310791,0.165527,0.049194
2026-04-22 14:15:30,-2.6797,5.7461,7.1680,0.934631,0.310791,0.165527,0.049194
2026-04-22 14:15:30,-2.7188,5.7461,7.2031,0.934631,0.310852,0.165527,0.049194
2026-04-22 14:15:30,-2.6797,5.7461,7.1680,0.934631,0.310852,0.165527,0.049194
2026-04-22 14:15:30,-2.6797,5.7461,7.1289,0.934631,0.310852,0.165527,0.049133
2026-04-22 14:15:30,-2.7188,5.7461,7.1641,0.934631,0.310852,0.165527,0.049194
2026-04-22 14:15:30,-2.6797,5.7070,7.2070,0.934631,0.310913,0.165527,0.049133
2026-04-22 14:15:30,-2.6445,5.7461,7.1250,0.934631,0.310974,0.165466,0.049255
2026-04-22 14:15:30,-2.6797,5.7070,7.2070,0.934570,0.311035,0.165466,0.049316
2026-04-22 14:15:30,-2.7188,5.7461,7.1641,0.934570,0.311035,0.165466,0.049316
2026-04-22 14:15:30,-2.6445,5.7461,7.1641,0.934570,0.310974,0.165466,0.049316
2026-04-22 14:15:30,-2.6797,5.7070,7.2070,0.934570,0.311035,0.165466,0.049316
2026-04-22 14:15:30,-2.6797,5.7461,7.2070,0.934570,0.310974,0.165466,0.049377
2026-04-22 14:15:30,-2.6797,5.7070,7.1680,0.934631,0.310974,0.165466,0.049377
2026-04-22 14:15:30,-2.6445,5.7852,7.1641,0.934631,0.310974,0.165466,0.049377
2026-04-22 14:15:30,-2.7188,5.7852,7.2031,0.934570,0.311035,0.165466,0.049377
2026-04-22 14:15:30,-2.7188,5.7461,7.2031,0.934570,0.311035,0.165527,0.049377
2026-04-22 14:15:30,-2.7188,5.7461,7.2031,0.934570,0.310913,0.165588,0.049377
2026-04-22 14:15:30,-2.6797,5.7070,7.2070,0.934570,0.310974,0.165527,0.049377
2026-04-22 14:15:30,-2.6445,5.7461,7.1641,0.934570,0.310974,0.165527,0.049377
2026-04-22 14:15:30,-2.6445,5.7461,7.1641,0.934570,0.310974,0.165588,0.049377
2026-04-22 14:15:30,-2.6797,5.7461,7.1680,0.934570,0.310974,0.165649,0.049377
2026-04-22 14:15:30,-2.6797,5.7461,7.2070,0.934570,0.310974,0.165588,0.049316
2026-04-22 14:15:30,-2.6445,5.7461,7.1641,0.934570,0.310974,0.165588,0.049316
2026-04-22 14:15:30,-2.6797,5.7461,7.1680,0.934570,0.311035,0.165649,0.049316
2026-04-22 14:15:30,-2.6797,5.7070,7.1680,0.934570,0.310974,0.165588,0.049316
2026-04-22 14:15:30,-2.7188,5.7070,7.1641,0.934570,0.311035,0.165649,0.049316
2026-04-22 14:15:31,-2.6797,5.7070,7.1680,0.934570,0.311035,0.165710,0.049316
2026-04-22 14:15:31,-2.6797,5.7461,7.1680,0.934509,0.311035,0.165710,0.049316
2026-04-22 14:15:31,-2.6445,5.7852,7.1641,0.934509,0.311035,0.165771,0.049316
2026-04-22 14:15:31,-2.7188,5.7461,7.1641,0.934509,0.311035,0.165771,0.049316
2026-04-22 14:15:31,-2.6797,5.7070,7.1680,0.934509,0.311035,0.165771,0.049316
2026-04-22 14:15:31,-2.6797,5.7461,7.2070,0.934509,0.311035,0.165771,0.049316
2026-04-22 14:15:31,-2.6445,5.7461,7.1641,0.934509,0.311096,0.165771,0.049316
2026-04-22 14:15:31,-2.6797,5.7461,7.1680,0.934509,0.311096,0.165771,0.049316
2026-04-22 14:15:31,-2.6797,5.7461,7.1680,0.934509,0.311096,0.165771,0.049316
2026-04-22 14:15:31,-2.6445,5.7461,7.1641,0.934509,0.311096,0.165833,0.049316
2026-04-22 14:15:31,-2.6797,5.7461,7.1680,0.934448,0.311157,0.165833,0.049316
2026-04-22 14:15:31,-2.6797,5.7070,7.1680,0.934448,0.311218,0.165833,0.049316
2026-04-22 14:15:31,-2.6797,5.7461,7.1680,0.934448,0.311218,0.165833,0.049316
2026-04-22 14:15:31,-2.6797,5.7461,7.1680,0.934448,0.311218,0.165894,0.049316
2026-04-22 14:15:31,-2.6797,5.7070,7.2070,0.934448,0.311218,0.165894,0.049316
2026-04-22 14:15:31,-2.6797,5.7461,7.1680,0.934448,0.311279,0.165894,0.049316
2026-04-22 14:15:31,-2.6797,5.7461,7.1680,0.934448,0.311279,0.165894,0.049316
2026-04-22 14:15:31,-2.6797,5.7461,7.1680,0.934448,0.311279,0.165894,0.049316
2026-04-22 14:15:31,-2.6797,5.7461,7.1680,0.934448,0.311279,0.165894,0.049316
2026-04-22 14:15:31,-2.6797,5.7461,7.1680,0.934448,0.311279,0.165894,0.049316
2026-04-22 14:15:31,-2.6797,5.7461,7.1680,0.934387,0.311340,0.165894,0.049316
2026-04-22 14:15:31,-2.7188,5.7461,7.1641,0.934387,0.311401,0.165955,0.049316
2026-04-22 14:15:31,-2.6797,5.7461,7.1680,0.934387,0.311401,0.165955,0.049316
2026-04-22 14:15:31,-2.6797,5.7070,7.1680,0.934387,0.311462,0.165955,0.049316
2026-04-22 14:15:31,-2.6797,5.7461,7.1680,0.934387,0.311462,0.165955,0.049316
2026-04-22 14:15:31,-2.7188,5.7461,7.2031,0.934387,0.311462,0.165955,0.049316
2026-04-22 14:15:31,-2.6797,5.7070,7.1680,0.934326,0.311462,0.165955,0.049316
2026-04-22 14:15:31,-2.6797,5.7461,7.1680,0.934326,0.311462,0.165955,0.049316
2026-04-22 14:15:31,-2.6445,5.7461,7.1641,0.934326,0.311462,0.165955,0.049316
2026-04-22 14:15:31,-2.6797,5.7461,7.1680,0.934326,0.311523,0.165955,0.049316
2026-04-22 14:15:31,-2.6797,5.7070,7.1680,0.934326,0.311584,0.166016,0.049316
2026-04-22 14:15:31,-2.7188,5.7461,7.1641,0.934265,0.311584,0.166016,0.049316
2026-04-22 14:15:31,-2.6797,5.7461,7.2070,0.934265,0.311646,0.166016,0.049316
2026-04-22 14:15:31,-2.6797,5.7461,7.2070,0.934265,0.311646,0.166016,0.049316
2026-04-22 14:15:31,-2.6797,5.7461,7.1680,0.934265,0.311646,0.166016,0.049316
2026-04-22 14:15:31,-2.6797,5.7461,7.1680,0.934265,0.311646,0.166077,0.049316
2026-04-22 14:15:31,-2.6797,5.7461,7.1289,0.934265,0.311646,0.166077,0.049316
2026-04-22 14:15:31,-2.6797,5.7461,7.1289,0.934265,0.311707,0.166077,0.049316
2026-04-22 14:15:31,-2.6445,5.7461,7.1641,0.934265,0.311707,0.166077,0.049316
2026-04-22 14:15:31,-2.6797,5.7461,7.2070,0.934265,0.311707,0.166077,0.049316
2026-04-22 14:15:32,-2.6445,5.7461,7.1641,0.934204,0.311768,0.166138,0.049316
2026-04-22 14:15:32,-2.7188,5.7461,7.1641,0.934204,0.311768,0.166138,0.049316
2026-04-22 14:15:32,-2.6797,5.7461,7.1680,0.934204,0.311768,0.166138,0.049316
2026-04-22 14:15:32,-2.7188,5.7461,7.1641,0.934204,0.311768,0.166077,0.049377
2026-04-22 14:15:32,-2.6797,5.7461,7.1680,0.934204,0.311829,0.166077,0.049377
2026-04-22 14:15:32,-2.7188,5.7070,7.1641,0.934204,0.311829,0.166077,0.049377
2026-04-22 14:15:32,-2.6797,5.7461,7.2070,0.934204,0.311829,0.166077,0.049377
2026-04-22 14:15:32,-2.6797,5.7461,7.1680,0.934204,0.311829,0.166077,0.049377
2026-04-22 14:15:32,-2.6797,5.7461,7.1680,0.934204,0.311829,0.166077,0.049377
2026-04-22 14:15:32,-2.6797,5.7461,7.1680,0.934204,0.311829,0.166077,0.049377
2026-04-22 14:15:32,-2.6445,5.7461,7.1641,0.934204,0.311951,0.165955,0.049377
2026-04-22 14:15:32,-2.6797,5.7070,7.1680,0.934204,0.311951,0.165955,0.049438
2026-04-22 14:15:32,-2.7188,5.7461,7.1641,0.934204,0.311951,0.165955,0.049438
2026-04-22 14:15:32,-2.6797,5.7461,7.2070,0.934143,0.312012,0.165955,0.049438
2026-04-22 14:15:32,-2.6797,5.7461,7.1680,0.934143,0.312073,0.165894,0.049438
2026-04-22 14:15:32,-2.6797,5.7461,7.1680,0.934143,0.312073,0.165955,0.049500
2026-04-22 14:15:32,-2.6797,5.7461,7.1680,0.934143,0.312073,0.165955,0.049500
2026-04-22 14:15:32,-2.6797,5.7461,7.1680,0.934143,0.312073,0.165955,0.049500
2026-04-22 14:15:32,-2.7188,5.7461,7.1641,0.934143,0.312073,0.165955,0.049438
2026-04-22 14:15:32,-2.6797,5.7461,7.1680,0.934143,0.312073,0.165955,0.049438
2026-04-22 14:15:32,-2.6797,5.7070,7.1680,0.934143,0.312073,0.166016,0.049500
2026-04-22 14:15:32,-2.6797,5.7461,7.1680,0.934143,0.312012,0.166077,0.049438
2026-04-22 14:15:32,-2.6797,5.7461,7.1680,0.934143,0.312073,0.166077,0.049438
2026-04-22 14:15:32,-2.6797,5.7070,7.1680,0.934143,0.312012,0.166077,0.049438
2026-04-22 14:15:32,-2.6797,5.7461,7.1289,0.934143,0.312012,0.166077,0.049500
2026-04-22 14:15:32,-2.6797,5.7461,7.1680,0.934143,0.312012,0.166138,0.049500
2026-04-22 14:15:32,-2.6797,5.7461,7.1680,0.934143,0.312012,0.166138,0.049500
2026-04-22 14:15:32,-2.6797,5.7461,7.1680,0.934082,0.312073,0.166077,0.049500
2026-04-22 14:15:32,-2.6797,5.7461,7.1680,0.934082,0.312073,0.166138,0.049500
2026-04-22 14:15:32,-2.6797,5.7461,7.1680,0.934082,0.312073,0.166138,0.049500
2026-04-22 14:15:32,-2.7188,5.7461,7.1641,0.934143,0.312012,0.166138,0.049561
2026-04-22 14:15:32,-2.6797,5.7070,7.1680,0.934143,0.311951,0.166199,0.049500
2026-04-22 14:15:32,-2.6797,5.7461,7.1680,0.934143,0.311890,0.166199,0.049500
2026-04-22 14:15:32,-2.7188,5.7461,7.1641,0.934143,0.311890,0.166138,0.049500
2026-04-22 14:15:32,-2.6797,5.7461,7.1680,0.934143,0.311890,0.166199,0.049500
2026-04-22 14:15:32,-2.6797,5.7461,7.1680,0.934143,0.311890,0.166199,0.049500
2026-04-22 14:15:32,-2.6797,5.7461,7.1289,0.934143,0.311829,0.166199,0.049500
2026-04-22 14:15:32,-2.6797,5.7461,7.1680,0.934204,0.311829,0.166199,0.049500
2026-04-22 14:15:32,-2.6797,5.7461,7.1289,0.934204,0.311829,0.166199,0.049500
2026-04-22 14:15:32,-2.6797,5.7461,7.1680,0.934143,0.311829,0.166199,0.049561
2026-04-22 14:15:33,-2.6797,5.7461,7.1680,0.934143,0.311951,0.166321,0.049500
2026-04-22 14:15:33,-2.6797,5.7461,7.1680,0.934143,0.311951,0.166321,0.049438
2026-04-22 14:15:33,-2.6797,5.7461,7.1680,0.934143,0.311951,0.166321,0.049438
2026-04-22 14:15:33,-2.6797,5.7461,7.1289,0.934143,0.311951,0.166321,0.049438
2026-04-22 14:15:33,-2.6797,5.7461,7.1289,0.934143,0.311951,0.166321,0.049438
2026-04-22 14:15:33,-2.6797,5.7461,7.1680,0.934143,0.311951,0.166321,0.049438
2026-04-22 14:15:33,-2.6797,5.7852,7.1680,0.934143,0.311951,0.166321,0.049438
2026-04-22 14:15:33,-2.6797,5.7852,7.1680,0.934143,0.311951,0.166321,0.049438
2026-04-22 14:15:33,-2.7188,5.7461,7.1641,0.934143,0.311951,0.166321,0.049438
2026-04-22 14:15:33,-2.6797,5.7461,7.1680,0.934082,0.311951,0.166321,0.049438
2026-04-22 14:15:33,-2.6797,5.7461,7.1680,0.934082,0.311951,0.166382,0.049438
2026-04-22 14:15:33,-2.6797,5.7461,7.1680,0.934082,0.311951,0.166382,0.049438
2026-04-22 14:15:33,-2.6797,5.7461,7.1680,0.934082,0.311951,0.166382,0.049438
2026-04-22 14:15:33,-2.6797,5.7461,7.1680,0.934082,0.311951,0.166382,0.049438
2026-04-22 14:15:33,-2.7188,5.7461,7.1641,0.934143,0.311951,0.166382,0.049438
2026-04-22 14:15:33,-2.6797,5.7461,7.1680,0.934143,0.311951,0.166382,0.049438
2026-04-22 14:15:33,-2.6797,5.7852,7.1289,0.934143,0.311951,0.166382,0.049438
2026-04-22 14:15:33,-2.6797,5.7852,7.1680,0.934143,0.311890,0.166382,0.049438
2026-04-22 14:15:33,-2.6797,5.7461,7.1680,0.934143,0.311890,0.166382,0.049377
2026-04-22 14:15:33,-2.6797,5.7461,7.1680,0.934143,0.311890,0.166443,0.049377
2026-04-22 14:15:33,-2.6797,5.7461,7.2070,0.934082,0.311890,0.166443,0.049316
2026-04-22 14:15:33,-2.6797,5.7461,7.1289,0.934082,0.311951,0.166504,0.049316
2026-04-22 14:15:33,-2.6797,5.7461,7.1680,0.934082,0.311951,0.166504,0.049316
2026-04-22 14:15:33,-2.6797,5.7461,7.1680,0.934082,0.311951,0.166504,0.049316
2026-04-22 14:15:33,-2.6797,5.7852,7.2070,0.934082,0.312012,0.166504,0.049377
2026-04-22 14:15:33,-2.6797,5.7461,7.1680,0.934082,0.312012,0.166504,0.049316
2026-04-22 14:15:33,-2.6797,5.7461,7.1289,0.934082,0.312012,0.166504,0.049316
2026-04-22 14:15:33,-2.6797,5.7461,7.1680,0.934082,0.312073,0.166504,0.049316
2026-04-22 14:15:33,-2.6797,5.7461,7.1680,0.934082,0.312073,0.166443,0.049316
2026-04-22 14:15:33,-2.6797,5.7461,7.1680,0.934082,0.312073,0.166443,0.049316
2026-04-22 14:15:33,-2.6797,5.7461,7.1680,0.934082,0.311951,0.166504,0.049255
2026-04-22 14:15:33,-2.6797,5.7852,7.1680,0.934082,0.311951,0.166504,0.049255
2026-04-22 14:15:33,-2.6797,5.7461,7.1680,0.934082,0.311951,0.166504,0.049255
2026-04-22 14:15:33,-2.6445,5.7461,7.1641,0.934082,0.312012,0.166504,0.049255
2026-04-22 14:15:33,-2.6797,5.7461,7.1680,0.934082,0.312012,0.166504,0.049255
2026-04-22 14:15:33,-2.6797,5.7461,7.1289,0.934082,0.311951,0.166443,0.049255
2026-04-22 14:15:33,-2.6445,5.7461,7.1250,0.934082,0.312012,0.166443,0.049255
2026-04-22 14:15:33,-2.6797,5.7461,7.1680,0.934082,0.312073,0.166443,0.049255
2026-04-22 14:15:33,-2.7188,5.7852,7.1641,0.934082,0.312012,0.166443,0.049255
2026-04-22 14:15:33,-2.6797,5.7461,7.1289,0.934082,0.312012,0.166443,0.049316
2026-04-22 14:15:33,-2.6797,5.7461,7.1680,0.934082,0.311951,0.166443,0.049316
2026-04-22 14:15:34,-2.6797,5.7852,7.1680,0.934082,0.311951,0.166443,0.049316
2026-04-22 14:15:34,-2.6797,5.7461,7.1680,0.934143,0.311951,0.166382,0.049377
2026-04-22 14:15:34,-2.6797,5.7461,7.1680,0.934143,0.311951,0.166382,0.049438
2026-04-22 14:15:34,-2.6797,5.7461,7.2070,0.934143,0.311890,0.166382,0.049438
2026-04-22 14:15:34,-2.6797,5.7852,7.1680,0.934143,0.311951,0.166382,0.049377
2026-04-22 14:15:34,-2.6797,5.7461,7.1680,0.934143,0.311951,0.166382,0.049377
2026-04-22 14:15:34,-2.6797,5.7461,7.1680,0.934143,0.311951,0.166382,0.049377
2026-04-22 14:15:34,-2.6797,5.7461,7.1680,0.934143,0.311951,0.166382,0.049377
2026-04-22 14:15:34,-2.7188,5.7852,7.1641,0.934143,0.311890,0.166382,0.049377
2026-04-22 14:15:34,-2.7188,5.7461,7.1250,0.934143,0.311890,0.166321,0.049438
2026-04-22 14:15:34,-2.6445,5.7461,7.1641,0.934143,0.311890,0.166382,0.049438
2026-04-22 14:15:34,-2.6797,5.7461,7.1680,0.934143,0.311890,0.166321,0.049438
2026-04-22 14:15:34,-2.6797,5.7461,7.1680,0.934143,0.311890,0.166382,0.049438
2026-04-22 14:15:34,-2.6797,5.7461,7.1680,0.934143,0.311890,0.166382,0.049377
2026-04-22 14:15:34,-2.6797,5.7461,7.1289,0.934143,0.311890,0.166382,0.049438
2026-04-22 14:15:34,-2.6797,5.7461,7.1289,0.934143,0.311890,0.166443,0.049438
2026-04-22 14:15:34,-2.6797,5.7461,7.1289,0.934143,0.311890,0.166443,0.049438
2026-04-22 14:15:34,-2.7188,5.7461,7.1641,0.934143,0.311890,0.166443,0.049438
2026-04-22 14:15:34,-2.6797,5.7852,7.1680,0.934082,0.311951,0.166443,0.049438
2026-04-22 14:15:34,-2.6797,5.7461,7.1289,0.934082,0.312012,0.166504,0.049438
2026-04-22 14:15:34,-2.6797,5.7461,7.1680,0.934082,0.312012,0.166504,0.049438
2026-04-22 14:15:34,-2.6797,5.7461,7.1289,0.934082,0.312073,0.166504,0.049438
2026-04-22 14:15:34,-2.6797,5.7461,7.1289,0.934082,0.312073,0.166504,0.049377
2026-04-22 14:15:34,-2.7188,5.7852,7.1250,0.934021,0.312073,0.166504,0.049377
2026-04-22 14:15:34,-2.6797,5.7852,7.1680,0.934021,0.312073,0.166504,0.049377
2026-04-22 14:15:34,-2.6797,5.7461,7.1289,0.934021,0.312073,0.166504,0.049377
2026-04-22 14:15:34,-2.6797,5.7461,7.1680,0.934021,0.312073,0.166504,0.049377
2026-04-22 14:15:34,-2.6797,5.7461,7.1680,0.934021,0.312073,0.166504,0.049377
2026-04-22 14:15:34,-2.6797,5.7461,7.1289,0.934021,0.312134,0.166565,0.049377
2026-04-22 14:15:34,-2.6797,5.7852,7.1680,0.934021,0.312195,0.166565,0.049377
2026-04-22 14:15:34,-2.6797,5.7461,7.1680,0.934021,0.312195,0.166565,0.049377
2026-04-22 14:15:34,-2.6797,5.7852,7.1289,0.933960,0.312195,0.166565,0.049377
2026-04-22 14:15:34,-2.6797,5.7461,7.1680,0.933960,0.312195,0.166565,0.049377
2026-04-22 14:15:34,-2.6797,5.7461,7.1680,0.933960,0.312195,0.166565,0.049377
2026-04-22 14:15:34,-2.6797,5.7461,7.1680,0.933960,0.312256,0.166626,0.049377
2026-04-22 14:15:34,-2.7188,5.7461,7.1641,0.933960,0.312256,0.166626,0.049377
2026-04-22 14:15:34,-2.6797,5.7461,7.1680,0.933960,0.312256,0.166626,0.049377
2026-04-22 14:15:34,-2.6797,5.7852,7.1289,0.933960,0.312256,0.166626,0.049377
2026-04-22 14:15:34,-2.6797,5.7852,7.1680,0.933960,0.312317,0.166626,0.049377
2026-04-22 14:15:34,-2.6797,5.7852,7.1289,0.933899,0.312378,0.166687,0.049377
2026-04-22 14:15:34,-2.7188,5.7461,7.1641,0.933899,0.312378,0.166687,0.049377
2026-04-22 14:15:35,-2.6797,5.7461,7.1289,0.933899,0.312378,0.166687,0.049377
2026-04-22 14:15:35,-2.6797,5.7461,7.1289,0.933899,0.312378,0.166687,0.049377
2026-04-22 14:15:35,-2.6797,5.7461,7.1680,0.933899,0.312378,0.166687,0.049377
2026-04-22 14:15:35,-2.6797,5.7852,7.1289,0.933899,0.312378,0.166687,0.049377
2026-04-22 14:15:35,-2.6445,5.7461,7.1641,0.933899,0.312439,0.166687,0.049377
2026-04-22 14:15:35,-2.6797,5.7461,7.1289,0.933899,0.312439,0.166687,0.049377
2026-04-22 14:15:35,-2.6797,5.7461,7.1680,0.933899,0.312439,0.166687,0.049377
2026-04-22 14:15:35,-2.6797,5.7461,7.1289,0.933899,0.312439,0.166687,0.049377
2026-04-22 14:15:35,-2.6797,5.7461,7.1289,0.933838,0.312561,0.166748,0.049377
2026-04-22 14:15:35,-2.6797,5.7852,7.1680,0.933838,0.312561,0.166748,0.049377
2026-04-22 14:15:35,-2.6797,5.7461,7.1289,0.933838,0.312622,0.166748,0.049377
2026-04-22 14:15:35,-2.7188,5.7852,7.1641,0.933838,0.312622,0.166748,0.049438
2026-04-22 14:15:35,-2.7188,5.7852,7.1250,0.933838,0.312622,0.166748,0.049438
2026-04-22 14:15:35,-2.7188,5.7461,7.1641,0.933838,0.312622,0.166748,0.049438
2026-04-22 14:15:35,-2.6797,5.7461,7.1680,0.933838,0.312622,0.166748,0.049438
2026-04-22 14:15:35,-2.6797,5.7461,7.1680,0.933838,0.312622,0.166748,0.049438
2026-04-22 14:15:35,-2.6797,5.7461,7.1289,0.933777,0.312683,0.166748,0.049438
2026-04-22 14:15:35,-2.6797,5.7461,7.1680,0.933777,0.312683,0.166748,0.049438
2026-04-22 14:15:35,-2.6797,5.7852,7.1289,0.933777,0.312683,0.166809,0.049438
2026-04-22 14:15:35,-2.7188,5.7852,7.1641,0.933777,0.312744,0.166809,0.049438
2026-04-22 14:15:35,-2.6797,5.7852,7.1289,0.933777,0.312744,0.166809,0.049438
2026-04-22 14:15:35,-2.7188,5.7461,7.2031,0.933777,0.312744,0.166809,0.049438
2026-04-22 14:15:35,-2.7188,5.7461,7.1641,0.933777,0.312744,0.166809,0.049438
2026-04-22 14:15:35,-2.6797,5.7461,7.1289,0.933777,0.312805,0.166809,0.049438
2026-04-22 14:15:35,-2.6797,5.7852,7.1680,0.933777,0.312805,0.166809,0.049438
2026-04-22 14:15:35,-2.6797,5.7461,7.1680,0.933716,0.312805,0.166809,0.049438
2026-04-22 14:15:35,-2.7188,5.7461,7.1641,0.933716,0.312805,0.166809,0.049438
2026-04-22 14:15:35,-2.6797,5.7852,7.1289,0.933716,0.312805,0.166809,0.049438
2026-04-22 14:15:35,-2.6797,5.7852,7.1289,0.933716,0.312927,0.166870,0.049438
2026-04-22 14:15:35,-2.6797,5.7852,7.1680,0.933716,0.312927,0.166870,0.049438
2026-04-22 14:15:35,-2.6797,5.7461,7.1680,0.933716,0.312927,0.166870,0.049438
2026-04-22 14:15:35,-2.7188,5.7461,7.1250,0.933716,0.312927,0.166870,0.049438
2026-04-22 14:15:35,-2.6797,5.7461,7.1289,0.933716,0.312927,0.166870,0.049438
2026-04-22 14:15:35,-2.6797,5.7461,7.1680,0.933716,0.312927,0.166870,0.049438
2026-04-22 14:15:35,-2.6797,5.7852,7.1680,0.933716,0.312927,0.166870,0.049438
2026-04-22 14:15:35,-2.7188,5.7461,7.1641,0.933716,0.312927,0.166870,0.049438
2026-04-22 14:15:35,-2.7188,5.7461,7.1250,0.933655,0.312988,0.166870,0.049438
2026-04-22 14:15:35,-2.6797,5.7852,7.1289,0.933655,0.312988,0.166870,0.049438
2026-04-22 14:15:35,-2.6797,5.7852,7.1680,0.933655,0.313049,0.166931,0.049438
2026-04-22 14:15:35,-2.6797,5.7461,7.1680,0.933655,0.313049,0.166931,0.049438
2026-04-22 14:15:35,-2.6797,5.7852,7.1289,0.933655,0.313049,0.166931,0.049438
2026-04-22 14:15:35,-2.7188,5.7461,7.1641,0.933655,0.313049,0.166931,0.049438
2026-04-22 14:15:35,-2.6797,5.7852,7.1289,0.933655,0.313049,0.166931,0.049438
2026-04-22 14:15:36,-2.6797,5.7461,7.1680,0.933655,0.313049,0.166931,0.049438
2026-04-22 14:15:36,-2.7188,5.7852,7.1250,0.933655,0.313049,0.166931,0.049438
2026-04-22 14:15:36,-2.6797,5.7461,7.1680,0.933655,0.313110,0.166931,0.049438
2026-04-22 14:15:36,-2.7188,5.7852,7.1641,0.933655,0.313110,0.166931,0.049438
2026-04-22 14:15:36,-2.6445,5.7461,7.1641,0.933655,0.313110,0.166931,0.049438
2026-04-22 14:15:36,-2.6797,5.7852,7.1680,0.933594,0.313171,0.166931,0.049438
2026-04-22 14:15:36,-2.6797,5.7852,7.1680,0.933594,0.313171,0.166931,0.049438
2026-04-22 14:15:36,-2.6797,5.7852,7.1680,0.933594,0.313171,0.166931,0.049438
2026-04-22 14:15:36,-2.6797,5.7461,7.1289,0.933594,0.313171,0.166931,0.049438
2026-04-22 14:15:36,-2.7188,5.7852,7.1250,0.933594,0.313171,0.166931,0.049438
2026-04-22 14:15:36,-2.7188,5.7461,7.1641,0.933594,0.313171,0.166931,0.049438
2026-04-22 14:15:36,-2.6445,5.7461,7.1250,0.933594,0.313171,0.166931,0.049438
2026-04-22 14:15:36,-2.6797,5.7461,7.1680,0.933594,0.313171,0.166992,0.049438
2026-04-22 14:15:36,-2.6797,5.7461,7.1680,0.933594,0.313171,0.166992,0.049438
2026-04-22 14:15:36,-2.6797,5.7461,7.1680,0.933594,0.313171,0.166992,0.049438
2026-04-22 14:15:36,-2.6797,5.7852,7.1680,0.933594,0.313232,0.166992,0.049438
2026-04-22 14:15:36,-2.6797,5.7852,7.1289,0.933594,0.313232,0.166992,0.049438
2026-04-22 14:15:36,-2.6797,5.7461,7.1680,0.933594,0.313232,0.166992,0.049438
2026-04-22 14:15:36,-2.6797,5.7461,7.1680,0.933533,0.313232,0.166992,0.049438
2026-04-22 14:15:36,-2.6797,5.7461,7.1289,0.933533,0.313293,0.166992,0.049438
2026-04-22 14:15:36,-2.7188,5.7461,7.1641,0.933533,0.313293,0.166992,0.049438
2026-04-22 14:15:36,-2.6797,5.7852,7.1289,0.933533,0.313293,0.166992,0.049438
2026-04-22 14:15:36,-2.6797,5.7852,7.1680,0.933533,0.313293,0.166992,0.049438
2026-04-22 14:15:36,-2.7188,5.7461,7.1250,0.933533,0.313293,0.166992,0.049438
2026-04-22 14:15:36,-2.7188,5.7852,7.1250,0.933533,0.313293,0.166992,0.049438
2026-04-22 14:15:36,-2.6797,5.7461,7.1680,0.933533,0.313354,0.166992,0.049438
2026-04-22 14:15:36,-2.6797,5.7461,7.1289,0.933533,0.313354,0.166992,0.049438
2026-04-22 14:15:36,-2.6797,5.7852,7.1680,0.933533,0.313354,0.166992,0.049438
2026-04-22 14:15:36,-2.7188,5.7852,7.1641,0.933533,0.313354,0.166992,0.049438
2026-04-22 14:15:36,-2.6797,5.7852,7.1289,0.933533,0.313416,0.166992,0.049438
2026-04-22 14:15:36,-2.6797,5.7852,7.1680,0.933533,0.313416,0.166992,0.049438
2026-04-22 14:15:36,-2.6797,5.7461,7.1289,0.933533,0.313416,0.166992,0.049438
2026-04-22 14:15:36,-2.6797,5.7461,7.1289,0.933533,0.313416,0.166992,0.049438
2026-04-22 14:15:36,-2.6797,5.7852,7.1680,0.933533,0.313416,0.166992,0.049438
2026-04-22 14:15:36,-2.6797,5.7852,7.1289,0.933472,0.313416,0.166992,0.049438
2026-04-22 14:15:36,-2.7188,5.7852,7.1641,0.933472,0.313477,0.167053,0.049438
2026-04-22 14:15:36,-2.6797,5.7461,7.1680,0.933472,0.313477,0.167053,0.049438
2026-04-22 14:15:36,-2.6797,5.7852,7.1289,0.933472,0.313477,0.167053,0.049438
2026-04-22 14:15:36,-2.6797,5.7852,7.1680,0.933472,0.313538,0.167053,0.049438
2026-04-22 14:15:36,-2.6797,5.7852,7.1680,0.933472,0.313538,0.167053,0.049438
2026-04-22 14:15:36,-2.6797,5.7852,7.2070,0.933472,0.313538,0.167053,0.049438
2026-04-22 14:15:36,-2.6797,5.7461,7.1289,0.933472,0.313538,0.167053,0.049438
2026-04-22 14:15:36,-2.6797,5.7852,7.1680,0.933472,0.313538,0.167053,0.049438
2026-04-22 14:15:37,-2.6797,5.7461,7.1289,0.933472,0.313538,0.167053,0.049438
2026-04-22 14:15:37,-2.6797,5.7852,7.1289,0.933472,0.313538,0.167053,0.049438
2026-04-22 14:15:37,-2.6797,5.7852,7.1289,0.933411,0.313599,0.167053,0.049438
2026-04-22 14:15:37,-2.6797,5.7852,7.1680,0.933411,0.313599,0.167053,0.049438
2026-04-22 14:15:37,-2.7188,5.7461,7.1250,0.933411,0.313599,0.167053,0.049438
2026-04-22 14:15:37,-2.6797,5.7461,7.1289,0.933411,0.313599,0.167053,0.049438
2026-04-22 14:15:37,-2.6797,5.7852,7.1289,0.933411,0.313599,0.167053,0.049438
2026-04-22 14:15:37,-2.6797,5.7852,7.1680,0.933411,0.313599,0.167053,0.049438
2026-04-22 14:15:37,-2.6797,5.7852,7.1289,0.933411,0.313599,0.167114,0.049438
2026-04-22 14:15:37,-2.6797,5.7852,7.1289,0.933411,0.313599,0.167114,0.049438
2026-04-22 14:15:37,-2.6797,5.7852,7.1289,0.933411,0.313660,0.167114,0.049438
2026-04-22 14:15:37,-2.6797,5.7852,7.1680,0.933411,0.313660,0.167114,0.049438
2026-04-22 14:15:37,-2.6797,5.7852,7.1289,0.933411,0.313721,0.167114,0.049438
2026-04-22 14:15:37,-2.6797,5.7461,7.1289,0.933411,0.313721,0.167114,0.049438
2026-04-22 14:15:37,-2.6797,5.7852,7.1680,0.933411,0.313721,0.167114,0.049438
2026-04-22 14:15:37,-2.6797,5.7461,7.1680,0.933411,0.313721,0.167114,0.049438
2026-04-22 14:15:37,-2.6797,5.7461,7.1289,0.933350,0.313721,0.167114,0.049438
2026-04-22 14:15:37,-2.6797,5.7461,7.1680,0.933350,0.313721,0.167114,0.049438
2026-04-22 14:15:37,-2.7188,5.7852,7.1641,0.933350,0.313721,0.167114,0.049438
2026-04-22 14:15:37,-2.6797,5.7461,7.1289,0.933350,0.313721,0.167114,0.049438
2026-04-22 14:15:37,-2.7188,5.7852,7.0859,0.933350,0.313721,0.167114,0.049438
2026-04-22 14:15:37,-2.6797,5.7852,7.1680,0.933350,0.313782,0.167175,0.049438
2026-04-22 14:15:37,-2.6797,5.7852,7.1680,0.933350,0.313782,0.167175,0.049438
2026-04-22 14:15:37,-2.6797,5.7461,7.1289,0.933350,0.313782,0.167175,0.049438
2026-04-22 14:15:37,-2.6797,5.7852,7.1289,0.933350,0.313782,0.167175,0.049438
2026-04-22 14:15:37,-2.6797,5.7461,7.1289,0.933350,0.313843,0.167175,0.049438
2026-04-22 14:15:37,-2.6797,5.7852,7.1289,0.933350,0.313843,0.167175,0.049438
2026-04-22 14:15:37,-2.6797,5.7852,7.1680,0.933350,0.313843,0.167175,0.049438
2026-04-22 14:15:37,-2.6797,5.7461,7.1289,0.933350,0.313843,0.167175,0.049438
2026-04-22 14:15:37,-2.6797,5.7852,7.1680,0.933350,0.313843,0.167175,0.049438
2026-04-22 14:15:37,-2.7188,5.7852,7.1641,0.933350,0.313843,0.167175,0.049438
2026-04-22 14:15:37,-2.7188,5.7852,7.1250,0.933350,0.313843,0.167175,0.049438
2026-04-22 14:15:37,-2.7188,5.7461,7.1641,0.933350,0.313843,0.167175,0.049438
2026-04-22 14:15:37,-2.6797,5.7852,7.1680,0.933289,0.313843,0.167175,0.049438
2026-04-22 14:15:37,-2.6797,5.7461,7.1289,0.933289,0.313904,0.167175,0.049438
2026-04-22 14:15:37,-2.6797,5.7852,7.1680,0.933289,0.313904,0.167175,0.049438
2026-04-22 14:15:37,-2.7188,5.7852,7.1641,0.933289,0.313904,0.167236,0.049438
2026-04-22 14:15:37,-2.7188,5.7852,7.1641,0.933289,0.313904,0.167236,0.049438
2026-04-22 14:15:37,-2.6797,5.7852,7.1680,0.933289,0.313904,0.167236,0.049438
2026-04-22 14:15:37,-2.7188,5.7461,7.1250,0.933289,0.313904,0.167236,0.049438
2026-04-22 14:15:37,-2.6445,5.7461,7.1641,0.933289,0.313904,0.167236,0.049438
2026-04-22 14:15:37,-2.7188,5.7852,7.1641,0.933289,0.313904,0.167236,0.049438
2026-04-22 14:15:38,-2.6797,5.7852,7.1289,0.933289,0.313965,0.167236,0.049438
2026-04-22 14:15:38,-2.6797,5.7852,7.1289,0.933289,0.313965,0.167236,0.049438
2026-04-22 14:15:38,-2.7188,5.7852,7.1641,0.933289,0.313965,0.167297,0.049438
2026-04-22 14:15:38,-2.6797,5.7852,7.1289,0.933289,0.313965,0.167297,0.049438
2026-04-22 14:15:38,-2.6797,5.7852,7.1289,0.933289,0.313965,0.167297,0.049438
2026-04-22 14:15:38,-2.7188,5.7461,7.1250,0.933289,0.313965,0.167236,0.049438
2026-04-22 14:15:38,-2.6797,5.7852,7.0898,0.933289,0.313965,0.167236,0.049438
2026-04-22 14:15:38,-2.6797,5.7852,7.1289,0.933289,0.313965,0.167236,0.049500
2026-04-22 14:15:38,-2.6797,5.7461,7.1680,0.933289,0.313965,0.167236,0.049500
2026-04-22 14:15:38,-2.7188,5.7461,7.1641,0.933289,0.313904,0.167236,0.049500
2026-04-22 14:15:38,-2.7188,5.7852,7.1250,0.933289,0.313843,0.167297,0.049500
2026-04-22 14:15:38,-2.6797,5.7852,7.1289,0.933289,0.313904,0.167297,0.049438
2026-04-22 14:15:38,-2.6797,5.7461,7.1289,0.933289,0.313904,0.167236,0.049500
2026-04-22 14:15:38,-2.6797,5.7852,7.1289,0.933289,0.313843,0.167297,0.049438
2026-04-22 14:15:38,-2.6797,5.7852,7.1289,0.933289,0.313843,0.167297,0.049438
2026-04-22 14:15:38,-2.6797,5.7461,7.0898,0.933289,0.313843,0.167297,0.049500
2026-04-22 14:15:38,-2.7188,5.7852,7.1641,0.933289,0.313843,0.167297,0.049438
2026-04-22 14:15:38,-2.6797,5.7852,7.0898,0.933289,0.313904,0.167297,0.049500
2026-04-22 14:15:38,-2.7188,5.7852,7.1641,0.933289,0.313843,0.167297,0.049500
2026-04-22 14:15:38,-2.6797,5.7852,7.1289,0.933289,0.313843,0.167297,0.049500
2026-04-22 14:15:38,-2.7188,5.7461,7.1250,0.933289,0.313904,0.167236,0.049500
2026-04-22 14:15:38,-2.7188,5.7852,7.1641,0.933289,0.313904,0.167236,0.049500
2026-04-22 14:15:38,-2.6797,5.7852,7.1680,0.933289,0.313904,0.167236,0.049500
2026-04-22 14:15:38,-2.6797,5.7852,7.1289,0.933289,0.313904,0.167175,0.049500
2026-04-22 14:15:38,-2.7188,5.7852,7.1250,0.933289,0.313904,0.167175,0.049500
2026-04-22 14:15:38,-2.6797,5.7852,7.1289,0.933289,0.313904,0.167175,0.049500
2026-04-22 14:15:38,-2.6797,5.7852,7.1289,0.933289,0.313904,0.167236,0.049438
2026-04-22 14:15:38,-2.6797,5.7852,7.1289,0.933289,0.313904,0.167175,0.049438
2026-04-22 14:15:38,-2.6797,5.7852,7.1289,0.933289,0.313904,0.167175,0.049438
2026-04-22 14:15:38,-2.7188,5.7852,7.1250,0.933289,0.313904,0.167175,0.049377
2026-04-22 14:15:38,-2.7188,5.7461,7.1250,0.933289,0.313904,0.167236,0.049377
2026-04-22 14:15:38,-2.6797,5.7852,7.1680,0.933289,0.313904,0.167175,0.049438
2026-04-22 14:15:38,-2.7188,5.7852,7.1250,0.933289,0.313904,0.167175,0.049500
2026-04-22 14:15:38,-2.6797,5.7461,7.1289,0.933289,0.313965,0.167175,0.049500
2026-04-22 14:15:38,-2.6797,5.7461,7.1289,0.933289,0.313965,0.167175,0.049500
2026-04-22 14:15:38,-2.7188,5.7852,7.1250,0.933289,0.313965,0.167175,0.049500
2026-04-22 14:15:38,-2.7188,5.7852,7.1250,0.933289,0.314026,0.167175,0.049500
2026-04-22 14:15:38,-2.6797,5.7852,7.1289,0.933289,0.314026,0.167175,0.049500
2026-04-22 14:15:38,-2.7188,5.7852,7.1250,0.933289,0.314026,0.167175,0.049438
2026-04-22 14:15:38,-2.7188,5.7461,7.1250,0.933289,0.314026,0.167175,0.049438
2026-04-22 14:15:39,-2.6797,5.7852,7.1680,0.933289,0.314026,0.167236,0.049500
2026-04-22 14:15:39,-2.6797,5.7461,7.0898,0.933289,0.313904,0.167297,0.049500
2026-04-22 14:15:39,-2.7188,5.7852,7.1641,0.933289,0.313904,0.167297,0.049500
2026-04-22 14:15:39,-2.6797,5.7461,7.1289,0.933289,0.313904,0.167297,0.049500
2026-04-22 14:15:39,-2.7188,5.7461,7.1250,0.933289,0.313904,0.167297,0.049500
2026-04-22 14:15:39,-2.6797,5.7461,7.1289,0.933289,0.313904,0.167358,0.049500
2026-04-22 14:15:39,-2.6797,5.7852,7.1289,0.933289,0.313904,0.167358,0.049500
2026-04-22 14:15:39,-2.7188,5.7852,7.1250,0.933289,0.313904,0.167358,0.049500
2026-04-22 14:15:39,-2.7188,5.7852,7.1250,0.933289,0.313965,0.167358,0.049500
2026-04-22 14:15:39,-2.6797,5.7852,7.1289,0.933289,0.313965,0.167358,0.049500
2026-04-22 14:15:39,-2.6797,5.7852,7.1289,0.933228,0.314026,0.167480,0.049438
2026-04-22 14:15:39,-2.6797,5.7852,7.1289,0.933228,0.314026,0.167480,0.049438
2026-04-22 14:15:39,-2.6797,5.7852,7.1289,0.933228,0.314087,0.167480,0.049438
2026-04-22 14:15:39,-2.7188,5.7852,7.1250,0.933228,0.314087,0.167480,0.049438
2026-04-22 14:15:39,-2.7188,5.7852,7.1641,0.933166,0.314087,0.167480,0.049438
2026-04-22 14:15:39,-2.6797,5.7461,7.1289,0.933166,0.314087,0.167480,0.049438
2026-04-22 14:15:39,-2.6797,5.7852,7.1680,0.933166,0.314087,0.167480,0.049438
2026-04-22 14:15:39,-2.6797,5.7461,7.1289,0.933166,0.314087,0.167480,0.049438
2026-04-22 14:15:39,-2.6797,5.7852,7.1680,0.933166,0.314087,0.167480,0.049438
2026-04-22 14:15:39,-2.7188,5.7852,7.0859,0.933166,0.314087,0.167480,0.049438
2026-04-22 14:15:39,-2.7188,5.7852,7.1250,0.933166,0.314148,0.167542,0.049438
2026-04-22 14:15:39,-2.6797,5.7852,7.1289,0.933166,0.314209,0.167542,0.049438
2026-04-22 14:15:39,-2.6797,5.7852,7.1680,0.933166,0.314209,0.167542,0.049438
2026-04-22 14:15:39,-2.6797,5.7852,7.1680,0.933166,0.314209,0.167542,0.049438
2026-04-22 14:15:39,-2.7188,5.7852,7.1250,0.933166,0.314209,0.167542,0.049438
2026-04-22 14:15:39,-2.7188,5.7852,7.1250,0.933166,0.314209,0.167542,0.049438
2026-04-22 14:15:39,-2.6797,5.7852,7.1289,0.933166,0.314209,0.167542,0.049438
2026-04-22 14:15:39,-2.7188,5.7852,7.1250,0.933166,0.314209,0.167542,0.049438
2026-04-22 14:15:39,-2.7188,5.7852,7.1250,0.933166,0.314209,0.167542,0.049438
2026-04-22 14:15:39,-2.7188,5.7852,7.1641,0.933105,0.314209,0.167542,0.049438
2026-04-22 14:15:40,-2.6797,5.7852,7.1680,0.933105,0.314270,0.167603,0.049438
2026-04-22 14:15:40,-2.7188,5.7461,7.1250,0.933105,0.314270,0.167603,0.049438
2026-04-22 14:15:40,-2.6797,5.7461,7.1680,0.933105,0.314270,0.167603,0.049438
2026-04-22 14:15:40,-2.6797,5.7852,7.1289,0.933105,0.314270,0.167603,0.049438
2026-04-22 14:15:40,-2.6797,5.7852,7.1289,0.933105,0.314270,0.167603,0.049438
2026-04-22 14:15:40,-2.7188,5.7852,7.1250,0.933105,0.314270,0.167603,0.049438
2026-04-22 14:15:40,-2.6797,5.7852,7.1289,0.933105,0.314270,0.167603,0.049438
2026-04-22 14:15:40,-2.7188,5.7852,7.1641,0.933105,0.314270,0.167603,0.049438
2026-04-22 14:15:40,-2.6797,5.7852,7.1680,0.933105,0.314270,0.167603,0.049438
2026-04-22 14:15:40,-2.7188,5.7852,7.0859,0.933105,0.314270,0.167603,0.049438
2026-04-22 14:15:40,-2.6797,5.7852,7.1289,0.933105,0.314331,0.167603,0.049438
2026-04-22 14:15:40,-2.6797,5.7852,7.1680,0.933105,0.314331,0.167603,0.049438
2026-04-22 14:15:40,-2.7188,5.7852,7.0859,0.933105,0.314331,0.167603,0.049438
2026-04-22 14:15:40,-2.7188,5.7852,7.1250,0.933105,0.314331,0.167603,0.049438
2026-04-22 14:15:40,-2.6797,5.7852,7.0898,0.933105,0.314331,0.167603,0.049438
2026-04-22 14:15:40,-2.7188,5.7461,7.1641,0.933105,0.314331,0.167603,0.049438
2026-04-22 14:15:40,-2.7188,5.7852,7.1641,0.933105,0.314331,0.167603,0.049438
2026-04-22 14:15:40,-2.7188,5.7852,7.1250,0.933105,0.314331,0.167603,0.049438
2026-04-22 14:15:40,-2.6797,5.7852,7.1289,0.933044,0.314392,0.167603,0.049438
2026-04-22 14:15:40,-2.6797,5.7852,7.1680,0.933044,0.314392,0.167603,0.049438
2026-04-22 14:15:40,-2.6797,5.7461,7.1289,0.933044,0.314392,0.167664,0.049438
2026-04-22 14:15:40,-2.6797,5.7852,7.1289,0.933044,0.314392,0.167664,0.049438
2026-04-22 14:15:40,-2.6797,5.7852,7.1289,0.933044,0.314392,0.167664,0.049438
2026-04-22 14:15:40,-2.6797,5.7852,7.0898,0.933044,0.314392,0.167664,0.049438
2026-04-22 14:15:40,-2.6797,5.7852,7.1289,0.933044,0.314392,0.167664,0.049438
2026-04-22 14:15:40,-2.6797,5.7852,7.1680,0.933044,0.314392,0.167664,0.049438
2026-04-22 14:15:40,-2.7188,5.7852,7.1250,0.933044,0.314392,0.167664,0.049438
2026-04-22 14:15:40,-2.6797,5.7461,7.1680,0.933044,0.314392,0.167664,0.049438
2026-04-22 14:15:40,-2.6797,5.7852,7.1289,0.933044,0.314392,0.167664,0.049438
2026-04-22 14:15:40,-2.7188,5.7852,7.1250,0.933044,0.314392,0.167664,0.049438
2026-04-22 14:15:40,-2.6797,5.7852,7.1289,0.933044,0.314453,0.167664,0.049438
2026-04-22 14:15:40,-2.7188,5.7461,7.1250,0.933044,0.314453,0.167664,0.049438
2026-04-22 14:15:40,-2.7188,5.7852,7.0859,0.933044,0.314453,0.167664,0.049438
2026-04-22 14:15:40,-2.6797,5.7852,7.0898,0.933044,0.314453,0.167664,0.049438
2026-04-22 14:15:40,-2.7188,5.7461,7.1250,0.933044,0.314453,0.167664,0.049438
2026-04-22 14:15:40,-2.7188,5.7852,7.1250,0.933044,0.314453,0.167664,0.049438
2026-04-22 14:15:40,-2.7188,5.7852,7.1250,0.933044,0.314453,0.167664,0.049438
2026-04-22 14:15:40,-2.6797,5.8242,7.1250,0.933044,0.314453,0.167664,0.049438
2026-04-22 14:15:40,-2.7188,5.7852,7.1250,0.933044,0.314453,0.167664,0.049438
2026-04-22 14:15:40,-2.7188,5.7852,7.1250,0.933044,0.314453,0.167664,0.049438
2026-04-22 14:15:40,-2.7188,5.7852,7.1250,0.933044,0.314514,0.167664,0.049438
2026-04-22 14:15:41,-2.6797,5.7852,7.1289,0.933044,0.314514,0.167664,0.049438
2026-04-22 14:15:41,-2.6797,5.7852,7.1680,0.933044,0.314514,0.167664,0.049438
2026-04-22 14:15:41,-2.6797,5.7852,7.1680,0.933044,0.314514,0.167664,0.049438
2026-04-22 14:15:41,-2.7188,5.7852,7.1250,0.933044,0.314514,0.167664,0.049438
2026-04-22 14:15:41,-2.6797,5.7461,7.1680,0.932983,0.314514,0.167664,0.049438
2026-04-22 14:15:41,-2.7188,5.7852,7.1250,0.932983,0.314575,0.167664,0.049438
2026-04-22 14:15:41,-2.6797,5.7852,7.1289,0.932983,0.314575,0.167664,0.049438
2026-04-22 14:15:41,-2.6797,5.7461,7.1289,0.932983,0.314575,0.167664,0.049438
2026-04-22 14:15:41,-2.6797,5.7852,7.1289,0.932983,0.314575,0.167664,0.049500
2026-04-22 14:15:41,-2.6797,5.7852,7.1289,0.932983,0.314575,0.167664,0.049500
2026-04-22 14:15:41,-2.7188,5.7852,7.1641,0.932983,0.314575,0.167664,0.049500
2026-04-22 14:15:41,-2.6797,5.7852,7.1289,0.932983,0.314575,0.167664,0.049500
2026-04-22 14:15:41,-2.7188,5.7852,7.1250,0.932983,0.314636,0.167664,0.049500
2026-04-22 14:15:41,-2.6797,5.7852,7.1289,0.932983,0.314636,0.167664,0.049500
2026-04-22 14:15:41,-2.7188,5.7461,7.1250,0.932983,0.314636,0.167664,0.049500
2026-04-22 14:15:41,-2.6797,5.7852,7.1289,0.932983,0.314636,0.167664,0.049500
2026-04-22 14:15:41,-2.6797,5.7852,7.1289,0.932983,0.314636,0.167664,0.049500
2026-04-22 14:15:41,-2.6797,5.7852,7.1289,0.932983,0.314636,0.167664,0.049500
2026-04-22 14:15:41,-2.7188,5.7461,7.0859,0.932983,0.314636,0.167664,0.049500
2026-04-22 14:15:41,-2.7188,5.7852,7.1250,0.932983,0.314575,0.167664,0.049438
2026-04-22 14:15:41,-2.6797,5.7852,7.1289,0.932983,0.314575,0.167664,0.049438
2026-04-22 14:15:41,-2.6797,5.7852,7.1289,0.932983,0.314575,0.167664,0.049438
2026-04-22 14:15:41,-2.7188,5.8242,7.1289,0.932983,0.314575,0.167664,0.049438
2026-04-22 14:15:41,-2.7188,5.7852,7.1250,0.932983,0.314575,0.167664,0.049438
2026-04-22 14:15:41,-2.7188,5.7852,7.1250,0.932983,0.314575,0.167664,0.049438
2026-04-22 14:15:41,-2.6797,5.7852,7.1289,0.932983,0.314575,0.167664,0.049438
2026-04-22 14:15:41,-2.7188,5.7852,7.1250,0.932983,0.314575,0.167664,0.049438
2026-04-22 14:15:41,-2.6797,5.7461,7.1289,0.932983,0.314575,0.167664,0.049438
2026-04-22 14:15:41,-2.7188,5.7852,7.1641,0.932983,0.314575,0.167664,0.049438
2026-04-22 14:15:41,-2.6797,5.7852,7.1289,0.932983,0.314636,0.167725,0.049438
2026-04-22 14:15:41,-2.7188,5.7852,7.1250,0.932983,0.314636,0.167725,0.049500
2026-04-22 14:15:41,-2.7188,5.7852,7.1641,0.932983,0.314636,0.167725,0.049500
2026-04-22 14:15:41,-2.6797,5.7852,7.1289,0.932983,0.314636,0.167725,0.049500
2026-04-22 14:15:41,-2.7188,5.7852,7.1250,0.932983,0.314636,0.167725,0.049500
2026-04-22 14:15:41,-2.7188,5.7852,7.1250,0.932983,0.314636,0.167725,0.049500
2026-04-22 14:15:41,-2.6797,5.7852,7.1289,0.932983,0.314636,0.167725,0.049500
2026-04-22 14:15:41,-2.7188,5.7852,7.0859,0.932983,0.314636,0.167725,0.049438
2026-04-22 14:15:41,-2.6797,5.7852,7.1289,0.932983,0.314636,0.167725,0.049438
2026-04-22 14:15:41,-2.6797,5.7852,7.1289,0.932983,0.314636,0.167725,0.049438
2026-04-22 14:15:41,-2.7188,5.7852,7.1250,0.932922,0.314697,0.167725,0.049438
2026-04-22 14:15:41,-2.7188,5.7852,7.1250,0.932922,0.314697,0.167725,0.049438
2026-04-22 14:15:41,-2.6797,5.7852,7.1289,0.932922,0.314697,0.167725,0.049438
2026-04-22 14:15:42,-2.7188,5.7852,7.1250,0.932922,0.314697,0.167725,0.049438
2026-04-22 14:15:42,-2.7188,5.7852,7.1250,0.932922,0.314697,0.167725,0.049438
2026-04-22 14:15:42,-2.6797,5.7852,7.1289,0.932922,0.314697,0.167725,0.049438
2026-04-22 14:15:42,-2.7188,5.7461,7.1250,0.932922,0.314697,0.167725,0.049438
2026-04-22 14:15:42,-2.7188,5.7852,7.1250,0.932922,0.314697,0.167725,0.049438
2026-04-22 14:15:42,-2.7188,5.7852,7.1250,0.932922,0.314697,0.167725,0.049438
2026-04-22 14:15:42,-2.6797,5.7852,7.1289,0.932922,0.314697,0.167786,0.049438
2026-04-22 14:15:42,-2.7188,5.7852,7.1641,0.932922,0.314758,0.167786,0.049438
2026-04-22 14:15:42,-2.7188,5.7852,7.1250,0.932922,0.314758,0.167786,0.049438
2026-04-22 14:15:42,-2.7188,5.7852,7.1250,0.932922,0.314758,0.167786,0.049438
2026-04-22 14:15:42,-2.6797,5.7852,7.1289,0.932922,0.314758,0.167786,0.049438
2026-04-22 14:15:42,-2.7188,5.7852,7.1641,0.932922,0.314758,0.167786,0.049438
2026-04-22 14:15:42,-2.6797,5.7852,7.1289,0.932922,0.314758,0.167786,0.049438
2026-04-22 14:15:42,-2.6797,5.7852,7.1289,0.932922,0.314758,0.167786,0.049438
2026-04-22 14:15:42,-2.6797,5.7852,7.1680,0.932922,0.314758,0.167786,0.049438
2026-04-22 14:15:42,-2.6797,5.7852,7.1680,0.932922,0.314758,0.167786,0.049438
2026-04-22 14:15:42,-2.6797,5.7852,7.1289,0.932922,0.314758,0.167786,0.049438
2026-04-22 14:15:42,-2.7188,5.7852,7.1250,0.932922,0.314758,0.167786,0.049438
2026-04-22 14:15:42,-2.6797,5.7852,7.1289,0.932922,0.314819,0.167786,0.049438
2026-04-22 14:15:42,-2.6797,5.7852,7.1289,0.932922,0.314819,0.167786,0.049438
2026-04-22 14:15:42,-2.6797,5.7852,7.1289,0.932861,0.314819,0.167786,0.049438
2026-04-22 14:15:42,-2.6797,5.7852,7.1289,0.932861,0.314819,0.167786,0.049438
2026-04-22 14:15:42,-2.6797,5.8242,7.1250,0.932861,0.314819,0.167786,0.049438
2026-04-22 14:15:42,-2.7188,5.7852,7.1250,0.932861,0.314819,0.167786,0.049438
2026-04-22 14:15:42,-2.7188,5.7852,7.1250,0.932861,0.314819,0.167786,0.049438
2026-04-22 14:15:42,-2.7188,5.7852,7.1250,0.932861,0.314819,0.167786,0.049438
2026-04-22 14:15:42,-2.6797,5.7852,7.1289,0.932861,0.314819,0.167786,0.049438
2026-04-22 14:15:42,-2.6797,5.7852,7.1289,0.932861,0.314880,0.167786,0.049500
2026-04-22 14:15:42,-2.7188,5.7852,7.1250,0.932861,0.314880,0.167786,0.049500
2026-04-22 14:15:42,-2.7188,5.7461,7.1250,0.932861,0.314880,0.167786,0.049500
2026-04-22 14:15:42,-2.6797,5.7852,7.1289,0.932861,0.314880,0.167786,0.049500
2026-04-22 14:15:42,-2.7188,5.7852,7.1250,0.932861,0.314880,0.167786,0.049500
2026-04-22 14:15:42,-2.6797,5.7852,7.1680,0.932861,0.314880,0.167786,0.049500
2026-04-22 14:15:42,-2.6797,5.7852,7.1289,0.932861,0.314880,0.167786,0.049500
2026-04-22 14:15:42,-2.7188,5.7852,7.1250,0.932861,0.314880,0.167786,0.049500
2026-04-22 14:15:43,-2.6797,5.7852,7.1289,0.932861,0.314880,0.167786,0.049500
2026-04-22 14:15:43,-2.6797,5.7852,7.1289,0.932861,0.314880,0.167786,0.049500
2026-04-22 14:15:43,-2.7188,5.7852,7.1250,0.932861,0.314941,0.167786,0.049500
2026-04-22 14:15:43,-2.7188,5.7852,7.1250,0.932861,0.314941,0.167786,0.049500
2026-04-22 14:15:43,-2.7188,5.7852,7.1641,0.932861,0.314941,0.167786,0.049500
2026-04-22 14:15:43,-2.6797,5.7852,7.1289,0.932861,0.314941,0.167786,0.049500
2026-04-22 14:15:43,-2.7188,5.7852,7.1250,0.932861,0.314941,0.167786,0.049500
2026-04-22 14:15:43,-2.6797,5.7852,7.1289,0.932861,0.314941,0.167786,0.049500
2026-04-22 14:15:43,-2.7188,5.7852,7.1250,0.932861,0.314941,0.167786,0.049500
2026-04-22 14:15:43,-2.6797,5.7852,7.1289,0.932861,0.314941,0.167786,0.049500
2026-04-22 14:15:43,-2.7188,5.7852,7.1250,0.932861,0.314941,0.167786,0.049500
2026-04-22 14:15:43,-2.7188,5.7852,7.1250,0.932861,0.314941,0.167786,0.049500
2026-04-22 14:15:43,-2.6797,5.7852,7.1289,0.932861,0.314941,0.167847,0.049500
2026-04-22 14:15:43,-2.7188,5.7852,7.1641,0.932861,0.314941,0.167847,0.049500
2026-04-22 14:15:43,-2.7188,5.7852,7.1250,0.932861,0.314941,0.167847,0.049500
2026-04-22 14:15:43,-2.7188,5.7852,7.1250,0.932861,0.314941,0.167847,0.049500
2026-04-22 14:15:43,-2.6797,5.7852,7.1289,0.932861,0.314941,0.167847,0.049500
2026-04-22 14:15:43,-2.7188,5.7852,7.1250,0.932861,0.314941,0.167847,0.049438
2026-04-22 14:15:43,-2.7188,5.7852,7.1250,0.932861,0.314941,0.167847,0.049438
2026-04-22 14:15:43,-2.7188,5.7852,7.1641,0.932861,0.314941,0.167847,0.049438
2026-04-22 14:15:43,-2.7188,5.7852,7.1250,0.932861,0.314941,0.167847,0.049438
2026-04-22 14:15:43,-2.7188,5.7852,7.1250,0.932861,0.314941,0.167847,0.049438
2026-04-22 14:15:43,-2.7188,5.7852,7.1250,0.932861,0.314941,0.167847,0.049438
2026-04-22 14:15:43,-2.6797,5.7852,7.1289,0.932861,0.314941,0.167847,0.049438
2026-04-22 14:15:43,-2.6797,5.7852,7.1289,0.932861,0.314941,0.167847,0.049438
2026-04-22 14:15:43,-2.6797,5.7852,7.1289,0.932861,0.314941,0.167847,0.049438
2026-04-22 14:15:43,-2.7188,5.8242,7.1289,0.932861,0.314941,0.167847,0.049438
2026-04-22 14:15:43,-2.7188,5.7852,7.0859,0.932861,0.314941,0.167847,0.049438
2026-04-22 14:15:43,-2.6797,5.7852,7.1289,0.932861,0.314941,0.167847,0.049438
2026-04-22 14:15:43,-2.6797,5.7852,7.1680,0.932861,0.314941,0.167908,0.049438
2026-04-22 14:15:43,-2.6797,5.7852,7.1289,0.932861,0.314941,0.167908,0.049438
2026-04-22 14:15:43,-2.6797,5.7852,7.1289,0.932861,0.314941,0.167908,0.049438
2026-04-22 14:15:43,-2.6797,5.7852,7.1289,0.932800,0.314941,0.167908,0.049438
2026-04-22 14:15:43,-2.6797,5.7852,7.0898,0.932800,0.314941,0.167908,0.049438
2026-04-22 14:15:43,-2.6797,5.8242,7.1250,0.932800,0.314941,0.167908,0.049438
2026-04-22 14:15:43,-2.7188,5.8242,7.1289,0.932800,0.314941,0.167908,0.049438
2026-04-22 14:15:43,-2.6797,5.7852,7.1289,0.932800,0.314941,0.167908,0.049438
2026-04-22 14:15:43,-2.6797,5.7852,7.0898,0.932800,0.314941,0.167908,0.049438
2026-04-22 14:15:43,-2.7188,5.7852,7.1250,0.932800,0.314941,0.167908,0.049438
2026-04-22 14:15:43,-2.6797,5.7852,7.1680,0.932800,0.315002,0.167908,0.049438
2026-04-22 14:15:43,-2.7188,5.7852,7.1250,0.932800,0.315002,0.167908,0.049438
2026-04-22 14:15:43,-2.6797,5.7852,7.1289,0.932800,0.315002,0.167908,0.049438
2026-04-22 14:15:44,-2.6445,5.7852,7.1250,0.932800,0.315002,0.167908,0.049438
2026-04-22 14:15:44,-2.7188,5.7852,7.1641,0.932800,0.315002,0.167908,0.049438
2026-04-22 14:15:44,-2.6797,5.7852,7.0898,0.932800,0.315002,0.167908,0.049438
2026-04-22 14:15:44,-2.7188,5.7852,7.1641,0.932800,0.315002,0.167908,0.049438
2026-04-22 14:15:44,-2.7188,5.7852,7.0859,0.932800,0.315063,0.167908,0.049438
2026-04-22 14:15:44,-2.7188,5.7852,7.1250,0.932800,0.315063,0.167908,0.049438
2026-04-22 14:15:44,-2.6797,5.7852,7.1289,0.932800,0.315063,0.167908,0.049438
2026-04-22 14:15:44,-2.6797,5.7852,7.1289,0.932800,0.315063,0.167908,0.049438
2026-04-22 14:15:44,-2.6797,5.7852,7.1289,0.932800,0.315063,0.167908,0.049438
2026-04-22 14:15:44,-2.6797,5.7852,7.1289,0.932800,0.315063,0.167908,0.049438
2026-04-22 14:15:44,-2.6797,5.7852,7.1289,0.932800,0.315063,0.167908,0.049500
2026-04-22 14:15:44,-2.6797,5.8242,7.1250,0.932800,0.315063,0.167908,0.049500
2026-04-22 14:15:44,-2.7188,5.7852,7.1250,0.932800,0.315125,0.167908,0.049500
2026-04-22 14:15:44,-2.7188,5.7852,7.1250,0.932800,0.315125,0.167908,0.049500
2026-04-22 14:15:44,-2.7188,5.7852,7.0859,0.932800,0.315125,0.167908,0.049500
2026-04-22 14:15:44,-2.7188,5.7852,7.1250,0.932800,0.315125,0.167908,0.049500
2026-04-22 14:15:44,-2.6797,5.7461,7.1289,0.932800,0.315125,0.167908,0.049500
2026-04-22 14:15:44,-2.6797,5.7852,7.1289,0.932800,0.315125,0.167908,0.049500
2026-04-22 14:15:44,-2.7188,5.7852,7.1250,0.932800,0.315125,0.167908,0.049500
2026-04-22 14:15:44,-2.6797,5.7461,7.1289,0.932800,0.315125,0.167908,0.049500
2026-04-22 14:15:44,-2.7188,5.7852,7.1250,0.932739,0.315125,0.167908,0.049500
2026-04-22 14:15:44,-2.6797,5.8242,7.0859,0.932739,0.315125,0.167908,0.049500
2026-04-22 14:15:44,-2.7188,5.7852,7.1250,0.932739,0.315125,0.167908,0.049500
2026-04-22 14:15:44,-2.7188,5.7852,7.1250,0.932739,0.315125,0.167908,0.049500
2026-04-22 14:15:44,-2.6797,5.7461,7.1289,0.932739,0.315125,0.167908,0.049500
2026-04-22 14:15:44,-2.7188,5.7852,7.1250,0.932739,0.315125,0.167969,0.049500
2026-04-22 14:15:44,-2.7188,5.7852,7.1250,0.932739,0.315063,0.167969,0.049500
2026-04-22 14:15:44,-2.6797,5.7852,7.1289,0.932800,0.315063,0.167969,0.049500
2026-04-22 14:15:44,-2.7188,5.7852,7.1250,0.932800,0.315063,0.167969,0.049500
2026-04-22 14:15:44,-2.6797,5.7852,7.1289,0.932800,0.315002,0.167969,0.049500
2026-04-22 14:15:44,-2.6797,5.7852,7.1289,0.932800,0.315002,0.167969,0.049622
2026-04-22 14:15:44,-2.7188,5.8242,7.1289,0.932800,0.314941,0.167908,0.049561
2026-04-22 14:15:44,-2.7188,5.7852,7.1250,0.932800,0.314941,0.167908,0.049561
2026-04-22 14:15:44,-2.7188,5.7852,7.1250,0.932800,0.314941,0.167908,0.049561
2026-04-22 14:15:44,-2.7188,5.7852,7.1250,0.932800,0.315002,0.167908,0.049561
2026-04-22 14:15:44,-2.7188,5.7852,7.1250,0.932800,0.315002,0.167908,0.049622
2026-04-22 14:15:44,-2.6797,5.7852,7.1289,0.932800,0.315002,0.167908,0.049622
2026-04-22 14:15:44,-2.6797,5.7852,7.1289,0.932800,0.315002,0.167908,0.049622
2026-04-22 14:15:44,-2.7188,5.8242,7.1289,0.932800,0.315002,0.167908,0.049622
2026-04-22 14:15:44,-2.7188,5.7852,7.1250,0.932800,0.314941,0.167908,0.049561
2026-04-22 14:15:45,-2.6797,5.7852,7.1289,0.932861,0.314819,0.167908,0.049500
2026-04-22 14:15:45,-2.7188,5.7852,7.1250,0.932861,0.314819,0.167908,0.049561
2026-04-22 14:15:45,-2.7188,5.8242,7.0898,0.932861,0.314819,0.167969,0.049500
2026-04-22 14:15:45,-2.7188,5.7852,7.1250,0.932861,0.314880,0.167969,0.049561
2026-04-22 14:15:45,-2.6797,5.7852,7.1680,0.932861,0.314880,0.167969,0.049561
2026-04-22 14:15:45,-2.6797,5.7852,7.1289,0.932861,0.314880,0.167908,0.049561
2026-04-22 14:15:45,-2.7188,5.7852,7.0859,0.932861,0.314880,0.167908,0.049561
2026-04-22 14:15:45,-2.7188,5.7852,7.1250,0.932861,0.314880,0.167908,0.049500
2026-04-22 14:15:45,-2.6797,5.7852,7.1289,0.932861,0.314880,0.167908,0.049561
2026-04-22 14:15:45,-2.7188,5.7852,7.1250,0.932861,0.314880,0.167908,0.049500
2026-04-22 14:15:45,-2.6797,5.7852,7.1289,0.932861,0.314819,0.167908,0.049500
2026-04-22 14:15:45,-2.7188,5.7852,7.1250,0.932861,0.314758,0.167908,0.049438
2026-04-22 14:15:45,-2.6797,5.7852,7.1289,0.932922,0.314758,0.167847,0.049438
2026-04-22 14:15:45,-2.7188,5.7852,7.0859,0.932922,0.314758,0.167847,0.049438
2026-04-22 14:15:45,-2.7188,5.7852,7.1250,0.932922,0.314758,0.167847,0.049438
2026-04-22 14:15:45,-2.6797,5.8242,7.1250,0.932922,0.314758,0.167847,0.049438
2026-04-22 14:15:45,-2.6797,5.7852,7.0898,0.932922,0.314758,0.167847,0.049438
2026-04-22 14:15:45,-2.7188,5.7852,7.0859,0.932861,0.314819,0.167847,0.049438
2026-04-22 14:15:45,-2.6797,5.7852,7.1289,0.932922,0.314819,0.167786,0.049438
2026-04-22 14:15:45,-2.6797,5.7852,7.1289,0.932861,0.314819,0.167847,0.049438
2026-04-22 14:15:45,-2.7188,5.8242,7.1289,0.932861,0.314880,0.167969,0.049377
2026-04-22 14:15:45,-2.7188,5.8242,7.1289,0.932861,0.314880,0.167969,0.049316
2026-04-22 14:15:45,-2.7188,5.7461,7.1250,0.932861,0.314880,0.167969,0.049316
2026-04-22 14:15:45,-2.6797,5.7852,7.1289,0.932861,0.314880,0.167969,0.049316
2026-04-22 14:15:45,-2.6797,5.7852,7.1289,0.932861,0.314758,0.168030,0.049316
2026-04-22 14:15:45,-2.7188,5.7852,7.1250,0.932861,0.314758,0.168030,0.049316
2026-04-22 14:15:45,-2.6797,5.7852,7.1680,0.932861,0.314758,0.168030,0.049316
2026-04-22 14:15:45,-2.6797,5.8242,7.1250,0.932861,0.314758,0.168030,0.049316
2026-04-22 14:15:45,-2.6797,5.7852,7.1289,0.932861,0.314758,0.168030,0.049316
2026-04-22 14:15:45,-2.7188,5.7852,7.1641,0.932861,0.314758,0.168030,0.049316
2026-04-22 14:15:45,-2.7188,5.7852,7.1250,0.932861,0.314758,0.168030,0.049377
2026-04-22 14:15:45,-2.7188,5.8242,7.1289,0.932861,0.314758,0.168030,0.049377
2026-04-22 14:15:45,-2.7188,5.8242,7.1289,0.932861,0.314758,0.168030,0.049377
2026-04-22 14:15:45,-2.7188,5.7852,7.0859,0.932861,0.314697,0.168091,0.049438
2026-04-22 14:15:45,-2.6797,5.7852,7.1289,0.932861,0.314758,0.168030,0.049438
2026-04-22 14:15:45,-2.6797,5.7852,7.1289,0.932861,0.314758,0.168030,0.049438
2026-04-22 14:15:45,-2.6797,5.7852,7.1289,0.932861,0.314758,0.168030,0.049500
2026-04-22 14:15:45,-2.6797,5.7852,7.1680,0.932861,0.314758,0.168030,0.049500
2026-04-22 14:15:45,-2.6797,5.7852,7.1289,0.932861,0.314758,0.168030,0.049500
2026-04-22 14:15:45,-2.6797,5.7852,7.1289,0.932861,0.314758,0.168030,0.049500
2026-04-22 14:15:46,-2.6797,5.7852,7.1289,0.932861,0.314819,0.167908,0.049500
2026-04-22 14:15:46,-2.7188,5.8242,7.1289,0.932861,0.314819,0.167908,0.049500
2026-04-22 14:15:46,-2.6797,5.8242,7.0859,0.932861,0.314819,0.167847,0.049561
2026-04-22 14:15:46,-2.6797,5.7852,7.1289,0.932861,0.314819,0.167847,0.049561
2026-04-22 14:15:46,-2.6797,5.8242,7.1250,0.932861,0.314819,0.167847,0.049500
2026-04-22 14:15:46,-2.7188,5.7852,7.0859,0.932861,0.314819,0.167847,0.049561
2026-04-22 14:15:46,-2.6797,5.7852,7.1289,0.932922,0.314819,0.167786,0.049561
2026-04-22 14:15:46,-2.6797,5.7852,7.1289,0.932922,0.314819,0.167725,0.049561
2026-04-22 14:15:46,-2.6797,5.7852,7.1289,0.932922,0.314758,0.167725,0.049561
2026-04-22 14:15:46,-2.7188,5.7852,7.1250,0.932922,0.314758,0.167786,0.049561
2026-04-22 14:15:46,-2.7188,5.7852,7.0859,0.932861,0.314819,0.167847,0.049561
2026-04-22 14:15:46,-2.7188,5.7852,7.1250,0.932861,0.314819,0.167847,0.049561
2026-04-22 14:15:46,-2.7188,5.7852,7.0859,0.932861,0.314819,0.167908,0.049622
2026-04-22 14:15:46,-2.6797,5.8242,7.0859,0.932861,0.314819,0.167908,0.049561
2026-04-22 14:15:46,-2.7188,5.7852,7.1250,0.932861,0.314819,0.167908,0.049561
2026-04-22 14:15:46,-2.7188,5.7852,7.0859,0.932861,0.314819,0.167969,0.049561
2026-04-22 14:15:46,-2.7188,5.8242,7.1289,0.932861,0.314819,0.167969,0.049561
2026-04-22 14:15:46,-2.7188,5.7852,7.1250,0.932861,0.314819,0.167969,0.049561
2026-04-22 14:15:46,-2.6797,5.8242,7.1250,0.932861,0.314819,0.167969,0.049561
2026-04-22 14:15:46,-2.6797,5.7852,7.1289,0.932861,0.314819,0.167908,0.049561
2026-04-22 14:15:46,-2.6797,5.7852,7.1289,0.932861,0.314880,0.167908,0.049561
2026-04-22 14:15:46,-2.6797,5.8242,7.1250,0.932861,0.314819,0.167847,0.049622
2026-04-22 14:15:46,-2.6797,5.7852,7.1289,0.932861,0.314880,0.167908,0.049561
2026-04-22 14:15:46,-2.7188,5.8242,7.0898,0.932861,0.314880,0.167908,0.049561
2026-04-22 14:15:46,-2.6797,5.7852,7.1289,0.932861,0.314819,0.167908,0.049622
2026-04-22 14:15:46,-2.7188,5.7852,7.1641,0.932861,0.314819,0.167908,0.049561
2026-04-22 14:15:46,-2.6797,5.7852,7.0898,0.932861,0.314819,0.167908,0.049622
2026-04-22 14:15:46,-2.6797,5.7852,7.1289,0.932861,0.314819,0.167908,0.049622
2026-04-22 14:15:46,-2.7188,5.7852,7.0859,0.932861,0.314758,0.167908,0.049622
2026-04-22 14:15:46,-2.6797,5.7852,7.1289,0.932861,0.314758,0.167847,0.049622
2026-04-22 14:15:46,-2.6797,5.8242,7.1641,0.932861,0.314758,0.167908,0.049561
2026-04-22 14:15:46,-2.6797,5.7852,7.1289,0.932861,0.314758,0.167969,0.049561
2026-04-22 14:15:46,-2.7188,5.7852,7.1250,0.932861,0.314758,0.167969,0.049561
2026-04-22 14:15:46,-2.7188,5.7852,7.1250,0.932861,0.314758,0.167969,0.049561
2026-04-22 14:15:46,-2.6797,5.7852,7.1289,0.932861,0.314758,0.167969,0.049622
2026-04-22 14:15:46,-2.6797,5.8242,7.1250,0.932861,0.314758,0.167969,0.049622
2026-04-22 14:15:46,-2.6797,5.7852,7.0898,0.932861,0.314758,0.167969,0.049622
2026-04-22 14:15:46,-2.6797,5.8242,7.1250,0.932861,0.314758,0.167969,0.049622
2026-04-22 14:15:46,-2.7188,5.7852,7.1250,0.932861,0.314758,0.167969,0.049622
2026-04-22 14:15:46,-2.7188,5.7852,7.1250,0.932861,0.314819,0.167969,0.049622
2026-04-22 14:15:47,-2.6797,5.7852,7.1289,0.932861,0.314819,0.167908,0.049622
2026-04-22 14:15:47,-2.6797,5.7852,7.1289,0.932861,0.314819,0.167908,0.049622
2026-04-22 14:15:47,-2.6797,5.7852,7.1289,0.932861,0.314880,0.167908,0.049622
2026-04-22 14:15:47,-2.6797,5.7852,7.1289,0.932861,0.314880,0.167908,0.049622
2026-04-22 14:15:47,-2.6797,5.8242,7.1250,0.932861,0.314880,0.167908,0.049622
2026-04-22 14:15:47,-2.6797,5.7852,7.1289,0.932861,0.314880,0.167908,0.049683
2026-04-22 14:15:47,-2.7188,5.7852,7.0859,0.932861,0.314880,0.167908,0.049683
2026-04-22 14:15:47,-2.6797,5.7852,7.1289,0.932861,0.314880,0.167908,0.049683
2026-04-22 14:15:47,-2.7188,5.8242,7.0898,0.932861,0.314880,0.167908,0.049683
2026-04-22 14:15:47,-2.6797,5.7852,7.1289,0.932800,0.314941,0.167908,0.049683
2026-04-22 14:15:47,-2.6797,5.7852,7.1680,0.932800,0.314941,0.167908,0.049744
2026-04-22 14:15:47,-2.6797,5.7852,7.0898,0.932800,0.314941,0.167908,0.049805
2026-04-22 14:15:47,-2.6797,5.8242,7.1250,0.932800,0.314880,0.167908,0.049805
2026-04-22 14:15:47,-2.6797,5.7852,7.0898,0.932861,0.314880,0.167908,0.049805
2026-04-22 14:15:47,-2.7188,5.7852,7.1250,0.932861,0.314880,0.167908,0.049805
2026-04-22 14:15:47,-2.6797,5.7852,7.1289,0.932861,0.314880,0.167847,0.049805
2026-04-22 14:15:47,-2.7188,5.8242,7.1289,0.932800,0.314941,0.167847,0.049805
2026-04-22 14:15:47,-2.6797,5.7852,7.1289,0.932800,0.314941,0.167847,0.049744
2026-04-22 14:15:47,-2.7188,5.7852,7.1250,0.932800,0.314941,0.167847,0.049744
2026-04-22 14:15:47,-2.6797,5.7852,7.0898,0.932861,0.314880,0.167908,0.049744
2026-04-22 14:15:47,-2.6797,5.7852,7.1289,0.932800,0.314941,0.167969,0.049744
2026-04-22 14:15:47,-2.6797,5.7852,7.1289,0.932800,0.314880,0.168030,0.049744
2026-04-22 14:15:47,-2.6797,5.7852,7.1289,0.932861,0.314819,0.168030,0.049744
2026-04-22 14:15:47,-2.6797,5.7852,7.0898,0.932861,0.314819,0.168030,0.049683
2026-04-22 14:15:47,-2.7188,5.8242,7.1289,0.932861,0.314758,0.168091,0.049683
2026-04-22 14:15:47,-2.6797,5.7852,7.1289,0.932861,0.314819,0.168030,0.049744
2026-04-22 14:15:47,-2.6797,5.7852,7.1289,0.932861,0.314819,0.168030,0.049744
2026-04-22 14:15:47,-2.7188,5.7852,7.1250,0.932861,0.314819,0.168030,0.049683
2026-04-22 14:15:47,-2.6797,5.7852,7.0898,0.932861,0.314819,0.168030,0.049744
2026-04-22 14:15:47,-2.6797,5.7852,7.0898,0.932861,0.314819,0.168030,0.049744
2026-04-22 14:15:47,-2.7188,5.8242,7.0898,0.932800,0.314880,0.167969,0.049744
2026-04-22 14:15:47,-2.7188,5.7852,7.1641,0.932800,0.314880,0.167969,0.049805
2026-04-22 14:15:47,-2.6797,5.7852,7.0898,0.932800,0.314880,0.167908,0.049805
2026-04-22 14:15:47,-2.7188,5.7852,7.1250,0.932800,0.314941,0.167908,0.049805
2026-04-22 14:15:47,-2.6797,5.8242,7.1250,0.932800,0.314941,0.167908,0.049805
2026-04-22 14:15:47,-2.6797,5.7852,7.1680,0.932800,0.314880,0.167908,0.049805
2026-04-22 14:15:47,-2.6797,5.7852,7.1680,0.932800,0.314880,0.167969,0.049805
2026-04-22 14:15:47,-2.7188,5.7852,7.1250,0.932800,0.314880,0.167969,0.049805
2026-04-22 14:15:47,-2.6797,5.7852,7.1680,0.932800,0.314941,0.167969,0.049805
2026-04-22 14:15:47,-2.7188,5.8242,7.0898,0.932800,0.314941,0.167969,0.049805
2026-04-22 14:15:47,-2.7188,5.7852,7.1250,0.932861,0.314880,0.167847,0.049805
2026-04-22 14:15:48,-2.7188,5.7852,7.1250,0.932861,0.314880,0.167847,0.049805
2026-04-22 14:15:48,-2.6797,5.7852,7.1289,0.932861,0.314880,0.167786,0.049805
2026-04-22 14:15:48,-2.6797,5.7852,7.1289,0.932861,0.314880,0.167786,0.049805
2026-04-22 14:15:48,-2.7188,5.7852,7.1250,0.932861,0.314880,0.167786,0.049744
2026-04-22 14:15:48,-2.7188,5.7852,7.1250,0.932861,0.314880,0.167786,0.049744
2026-04-22 14:15:48,-2.7188,5.7852,7.1641,0.932861,0.314880,0.167786,0.049744
2026-04-22 14:15:48,-2.6797,5.7852,7.0898,0.932861,0.314880,0.167786,0.049744
2026-04-22 14:15:48,-2.7188,5.7852,7.0859,0.932861,0.314880,0.167786,0.049744
2026-04-22 14:15:48,-2.7188,5.7852,7.1250,0.932861,0.314880,0.167847,0.049744
2026-04-22 14:15:48,-2.7188,5.7852,7.0859,0.932861,0.314880,0.167847,0.049744
2026-04-22 14:15:48,-2.7188,5.8242,7.0898,0.932861,0.314880,0.167847,0.049744
2026-04-22 14:15:48,-2.6797,5.7852,7.1289,0.932861,0.314880,0.167847,0.049744
2026-04-22 14:15:48,-2.6797,5.7852,7.0898,0.932861,0.314880,0.167847,0.049744
2026-04-22 14:15:48,-2.6797,5.7852,7.1289,0.932861,0.314880,0.167847,0.049744
2026-04-22 14:15:48,-2.7188,5.7852,7.1250,0.932861,0.314941,0.167847,0.049744
2026-04-22 14:15:48,-2.7188,5.8242,7.1289,0.932800,0.314941,0.167908,0.049744
2026-04-22 14:15:48,-2.7188,5.7852,7.1250,0.932800,0.314941,0.167908,0.049744
2026-04-22 14:15:48,-2.6797,5.7852,7.1289,0.932800,0.314941,0.167908,0.049744
2026-04-22 14:15:48,-2.7188,5.7852,7.1250,0.932800,0.314941,0.167908,0.049744
2026-04-22 14:15:48,-2.7188,5.8242,7.1289,0.932800,0.315002,0.167969,0.049744
2026-04-22 14:15:48,-2.6797,5.7852,7.0898,0.932800,0.315002,0.167969,0.049744
2026-04-22 14:15:48,-2.6797,5.7852,7.1289,0.932800,0.315002,0.167969,0.049744
2026-04-22 14:15:48,-2.6797,5.7852,7.0898,0.932800,0.315002,0.167969,0.049744
2026-04-22 14:15:48,-2.7188,5.7852,7.0859,0.932800,0.315002,0.167969,0.049744
2026-04-22 14:15:48,-2.6797,5.7852,7.0898,0.932800,0.315002,0.167969,0.049744
2026-04-22 14:15:48,-2.6797,5.7852,7.0898,0.932800,0.315002,0.167969,0.049744
2026-04-22 14:15:48,-2.6797,5.7852,7.1680,0.932800,0.315002,0.167969,0.049744
2026-04-22 14:15:48,-2.7188,5.7852,7.1250,0.932800,0.315002,0.167969,0.049744
2026-04-22 14:15:48,-2.7188,5.7852,7.1250,0.932800,0.315002,0.167969,0.049744
2026-04-22 14:15:48,-2.6797,5.7852,7.0898,0.932739,0.315063,0.168030,0.049744
2026-04-22 14:15:48,-2.7188,5.7852,7.1250,0.932739,0.315063,0.168030,0.049744
2026-04-22 14:15:48,-2.6797,5.7852,7.1289,0.932739,0.315063,0.168030,0.049744
2026-04-22 14:15:48,-2.7188,5.7852,7.1250,0.932739,0.315063,0.168030,0.049744
2026-04-22 14:15:48,-2.7188,5.7852,7.1250,0.932739,0.315125,0.168030,0.049744
2026-04-22 14:15:48,-2.6797,5.7852,7.1289,0.932739,0.315125,0.168030,0.049744
2026-04-22 14:15:48,-2.7188,5.7852,7.1250,0.932739,0.315125,0.168030,0.049744
2026-04-22 14:15:48,-2.6797,5.7852,7.0898,0.932739,0.315125,0.168030,0.049744
2026-04-22 14:15:48,-2.7188,5.7852,7.0859,0.932739,0.315125,0.168030,0.049744
2026-04-22 14:15:48,-2.7188,5.7852,7.1250,0.932739,0.315125,0.168030,0.049744
2026-04-22 14:15:49,-2.7188,5.7852,7.1250,0.932739,0.315125,0.168030,0.049744
2026-04-22 14:15:49,-2.6797,5.7852,7.1289,0.932739,0.315125,0.168091,0.049744
2026-04-22 14:15:49,-2.7188,5.7852,7.1250,0.932739,0.315186,0.168091,0.049744
2026-04-22 14:15:49,-2.6797,5.8242,7.0859,0.932739,0.315186,0.168091,0.049744
2026-04-22 14:15:49,-2.6797,5.8242,7.1250,0.932739,0.315186,0.168091,0.049744
2026-04-22 14:15:49,-2.7188,5.8242,7.0898,0.932739,0.315186,0.168091,0.049744
2026-04-22 14:15:49,-2.7188,5.7852,7.1250,0.932678,0.315186,0.168091,0.049744
2026-04-22 14:15:49,-2.7188,5.8242,7.1289,0.932678,0.315186,0.168091,0.049744
2026-04-22 14:15:49,-2.6797,5.8242,7.1250,0.932678,0.315186,0.168091,0.049744
2026-04-22 14:15:49,-2.6797,5.8242,7.1250,0.932678,0.315186,0.168091,0.049744
2026-04-22 14:15:49,-2.7188,5.7852,7.1250,0.932678,0.315247,0.168091,0.049744
2026-04-22 14:15:49,-2.7188,5.7852,7.1250,0.932678,0.315247,0.168091,0.049744
2026-04-22 14:15:49,-2.7188,5.8242,7.0898,0.932678,0.315247,0.168152,0.049744
2026-04-22 14:15:49,-2.6797,5.8242,7.1250,0.932678,0.315247,0.168152,0.049744
2026-04-22 14:15:49,-2.7188,5.7852,7.1250,0.932678,0.315247,0.168152,0.049744
2026-04-22 14:15:49,-2.6797,5.7852,7.0898,0.932678,0.315247,0.168152,0.049683
2026-04-22 14:15:49,-2.6797,5.8242,7.1250,0.932678,0.315247,0.168152,0.049683
2026-04-22 14:15:49,-2.7188,5.7852,7.0859,0.932678,0.315247,0.168152,0.049683
2026-04-22 14:15:49,-2.6797,5.7852,7.1289,0.932678,0.315308,0.168152,0.049744
2026-04-22 14:15:49,-2.7188,5.8242,7.0898,0.932678,0.315308,0.168152,0.049744
2026-04-22 14:15:49,-2.7188,5.7852,7.1250,0.932617,0.315369,0.168152,0.049744
2026-04-22 14:15:49,-2.6797,5.7852,7.1289,0.932617,0.315369,0.168152,0.049744
2026-04-22 14:15:49,-2.6797,5.7852,7.1289,0.932617,0.315369,0.168152,0.049744
2026-04-22 14:15:49,-2.7188,5.7852,7.1250,0.932617,0.315369,0.168152,0.049744
2026-04-22 14:15:49,-2.6797,5.7852,7.1289,0.932617,0.315369,0.168213,0.049744
2026-04-22 14:15:49,-2.6797,5.7852,7.1289,0.932617,0.315369,0.168213,0.049744
2026-04-22 14:15:49,-2.6797,5.7852,7.1289,0.932617,0.315430,0.168213,0.049744
2026-04-22 14:15:49,-2.7188,5.7852,7.0859,0.932617,0.315430,0.168213,0.049744
2026-04-22 14:15:49,-2.6797,5.7852,7.1289,0.932617,0.315430,0.168213,0.049744
2026-04-22 14:15:49,-2.6797,5.8242,7.0859,0.932617,0.315430,0.168213,0.049744
2026-04-22 14:15:49,-2.7188,5.8242,7.1289,0.932617,0.315430,0.168213,0.049744
2026-04-22 14:15:49,-2.7188,5.8242,7.1289,0.932617,0.315430,0.168213,0.049744
2026-04-22 14:15:49,-2.7188,5.7852,7.0859,0.932556,0.315430,0.168213,0.049744
2026-04-22 14:15:49,-2.6797,5.8242,7.1641,0.932556,0.315491,0.168213,0.049744
2026-04-22 14:15:49,-2.6797,5.8242,7.1250,0.932556,0.315491,0.168213,0.049744
2026-04-22 14:15:49,-2.6797,5.7852,7.0898,0.932556,0.315491,0.168213,0.049744
2026-04-22 14:15:49,-2.6797,5.7852,7.1289,0.932556,0.315491,0.168213,0.049744
2026-04-22 14:15:49,-2.6797,5.8242,7.1250,0.932556,0.315491,0.168213,0.049744
2026-04-22 14:15:49,-2.7188,5.8242,7.0898,0.932556,0.315491,0.168213,0.049744
2026-04-22 14:15:49,-2.7188,5.7852,7.1250,0.932556,0.315491,0.168213,0.049744
2026-04-22 14:15:49,-2.6797,5.8242,7.1250,0.932556,0.315491,0.168274,0.049683
2026-04-22 14:15:49,-2.7188,5.7852,7.1250,0.932556,0.315491,0.168274,0.049683
2026-04-22 14:15:49,-2.7188,5.7852,7.1250,0.932556,0.315491,0.168274,0.049683
2026-04-22 14:15:50,-2.7188,5.7852,7.0859,0.932556,0.315491,0.168274,0.049683
2026-04-22 14:15:50,-2.7188,5.8242,7.1289,0.932556,0.315491,0.168335,0.049683
2026-04-22 14:15:50,-2.7188,5.7852,7.1250,0.932556,0.315491,0.168335,0.049683
2026-04-22 14:15:50,-2.6797,5.8242,7.1250,0.932556,0.315552,0.168274,0.049683
2026-04-22 14:15:50,-2.7188,5.7852,7.1250,0.932556,0.315552,0.168274,0.049683
2026-04-22 14:15:50,-2.7188,5.7852,7.1250,0.932556,0.315552,0.168274,0.049683
2026-04-22 14:15:50,-2.6797,5.7852,7.1289,0.932556,0.315613,0.168335,0.049683
2026-04-22 14:15:50,-2.6797,5.7852,7.1289,0.932495,0.315674,0.168274,0.049683
2026-04-22 14:15:50,-2.6797,5.7852,7.1289,0.932495,0.315674,0.168335,0.049744
2026-04-22 14:15:50,-2.6797,5.7852,7.1289,0.932495,0.315613,0.168335,0.049744
2026-04-22 14:15:50,-2.7188,5.7852,7.1250,0.932495,0.315674,0.168274,0.049744
2026-04-22 14:15:50,-2.6797,5.7852,7.1289,0.932495,0.315674,0.168274,0.049744
